frame_number,sync_timestamp,accel_x,accel_y,accel_z,gyro_x,gyro_y,gyro_z
0,0.000,-0.287,9.567,2.701,-1.85496,-0.03053,4.64885
1,0.033,0.541,9.708,2.989,10.17739,-11.86486,3.34087
2,0.067,0.535,9.354,2.995,6.18194,-22.43457,-7.55526
3,0.100,-1.399,8.975,2.442,5.70325,-25.60344,-15.80494
4,0.133,-3.414,9.926,1.994,-8.46649,-5.38145,-16.71846
5,0.167,-3.645,9.696,1.237,-6.63640,12.42579,-6.63165
6,0.200,-1.332,9.609,2.671,3.69143,20.00519,7.11071
7,0.233,1.972,11.043,3.834,-2.00161,3.27401,8.01047
8,0.267,1.124,9.390,2.343,-2.51424,-10.69649,3.71387
9,0.300,-0.828,8.135,2.487,-17.49898,2.76909,-1.39675
10,0.333,-0.890,9.383,2.081,-14.36179,18.12388,-0.97036
11,0.367,0.057,10.353,2.718,-4.03878,27.94537,5.12918
12,0.400,1.026,10.131,3.247,-2.29296,25.70690,4.26456
13,0.433,1.030,9.744,3.145,-4.65730,17.74102,0.85569
14,0.467,0.809,9.615,3.042,-5.13158,14.21396,-1.64706
15,0.500,0.489,9.583,2.443,1.65970,11.58597,-0.61061
16,0.533,0.355,10.340,3.326,12.74646,9.20423,3.73062
17,0.567,-0.093,10.558,3.400,20.51837,-1.00207,3.55108
18,0.600,0.011,9.569,3.069,15.01287,-1.06122,-5.48720
19,0.633,0.034,9.365,2.573,13.18684,-3.96644,-4.96940
20,0.667,-0.003,9.923,2.091,18.14298,-5.65685,-4.02053
21,0.700,0.159,9.745,2.516,20.02838,-8.16957,-8.55717
22,0.733,0.392,9.534,2.893,13.28234,-12.49377,-9.45141
23,0.767,-0.149,9.213,2.521,16.58306,-14.51621,-14.73715
24,0.800,-0.289,9.372,2.589,18.85823,-1.31056,-13.41378
25,0.833,0.231,9.814,2.363,22.79438,5.54861,-5.22614
26,0.867,1.314,10.288,3.214,24.42698,3.70732,1.06313
27,0.900,1.281,11.487,3.529,15.83661,-2.76228,-6.58341
28,0.933,0.618,10.762,3.263,21.73847,-0.68454,-2.50153
29,0.967,1.090,9.406,3.708,35.17254,2.85829,4.70326
30,1.000,1.287,8.396,3.882,29.04199,-0.88602,8.10819
31,1.033,1.583,7.801,3.002,26.16605,-11.52744,11.15301
32,1.067,2.958,6.831,1.138,9.51904,-39.61638,15.69233
33,1.100,2.322,7.561,1.282,1.07438,-37.13527,21.09777
34,1.133,-5.654,13.648,8.521,-7.29975,-15.75983,-6.36132
35,1.167,-3.565,9.902,1.827,-18.03232,19.94569,2.65914
36,1.200,-0.852,9.602,2.794,-25.10894,42.41058,14.22381
37,1.233,-1.417,9.960,3.144,-27.44313,18.35704,14.83288
38,1.267,-0.957,9.421,4.475,-10.36963,24.37419,8.40434
39,1.300,-0.660,8.530,6.448,-3.22187,24.88541,6.74377
40,1.333,0.026,8.549,5.911,-6.35892,13.87632,7.71656
41,1.367,-0.508,8.766,5.595,-5.96379,5.96561,4.27643
42,1.400,-1.398,9.892,5.591,2.69325,6.19317,2.70961
43,1.433,-1.350,10.103,5.284,18.03256,9.28864,1.15921
44,1.467,-1.119,9.282,4.381,26.11370,4.85518,-1.97814
45,1.500,-1.382,8.733,3.605,34.03149,3.48992,-5.36000
46,1.533,-1.987,8.303,2.614,34.58804,6.16088,-15.78465
47,1.567,-2.179,7.159,2.101,29.09227,11.37282,-26.75634
48,1.600,-2.122,6.431,1.313,4.04239,22.07319,-26.28876
49,1.633,-2.093,7.829,3.330,-29.77351,48.30266,-16.52585
50,1.667,6.272,15.992,6.421,-12.20037,-13.45386,14.73108
51,1.700,3.684,10.397,3.695,-5.11730,-49.73345,-6.12717
52,1.733,-0.765,8.456,6.812,-29.40712,-40.59603,-21.27066
53,1.767,0.539,7.439,4.547,-23.07771,-19.28237,-20.98506
54,1.800,-0.525,7.568,5.822,-3.67991,-6.69552,-8.93186
55,1.833,0.637,7.158,5.643,-7.29433,-18.01911,-3.65931
56,1.867,0.851,8.514,5.187,-11.47089,-9.79048,-5.95113
57,1.900,0.196,10.870,7.078,7.42876,-17.24021,-3.93143
58,1.933,0.866,12.050,7.352,18.22095,-13.30860,14.22988
59,1.967,0.702,10.085,5.644,22.74984,2.47684,-0.72216
60,2.000,1.473,8.154,4.626,25.70075,2.71031,2.04082
61,2.033,1.434,8.095,3.013,37.08003,-10.09442,17.49130
62,2.067,2.786,7.484,1.392,26.38017,-14.20912,24.14566
63,2.100,3.715,6.026,-0.412,3.89265,-48.47326,35.86290
64,2.133,3.751,6.981,-0.623,-22.96037,-67.77996,39.82810
65,2.167,-5.998,16.306,10.997,-98.16539,-29.33251,-15.95350
66,2.200,-7.135,10.253,1.047,-46.89196,64.19828,-3.54779
67,2.233,-0.002,13.442,0.684,3.72154,57.37103,13.25251
68,2.267,-0.292,10.536,6.073,-43.24885,48.67348,13.20242
69,2.300,-0.832,8.990,5.524,-7.22548,30.67439,9.77938
70,2.333,0.442,8.245,6.619,-7.93487,17.23113,1.53713
71,2.367,0.256,8.639,4.135,-7.67774,22.73702,-0.94970
72,2.400,-1.283,8.162,5.986,-3.42734,-6.97234,-4.99413
73,2.433,-1.245,8.306,5.490,-5.39150,-2.45766,-2.63135
74,2.467,-1.162,9.166,5.310,10.33480,-11.22045,0.35882
75,2.500,-1.376,9.789,5.206,6.11729,-18.08886,-6.45726
76,2.533,-1.224,8.813,4.603,-9.82606,-17.44062,-10.17755
77,2.567,-1.484,8.334,1.736,38.88785,-0.72569,-5.14468
78,2.600,-4.416,10.499,0.148,50.14879,11.91437,-18.36347
79,2.633,-2.624,6.803,0.587,38.41324,33.13229,-23.59365
80,2.667,-3.067,6.376,2.307,5.82704,48.51066,-20.18074
81,2.700,0.084,13.987,6.263,-23.26586,59.32303,-0.53904
82,2.733,5.368,14.218,3.559,-0.97606,-18.17722,11.95212
83,2.767,0.876,9.590,1.515,22.73238,-25.90193,-10.14977
84,2.800,-0.175,7.643,5.145,-19.78287,-19.44740,-27.43522
85,2.833,-0.697,6.960,4.617,-4.98298,-19.86052,-16.47670
86,2.867,-0.182,8.023,4.616,1.30039,-8.21275,-6.86436
87,2.900,-0.164,7.744,5.547,16.06463,10.06491,4.14990
88,2.933,2.158,9.190,5.775,-4.98874,12.82648,1.19697
89,2.967,2.169,10.471,5.275,-8.27750,0.81922,-5.87668
90,3.000,-0.182,8.959,5.947,0.43601,7.37680,-5.91543
91,3.033,-0.131,8.566,5.123,-0.74562,19.26775,1.24665
92,3.067,1.256,8.495,4.923,3.70133,16.73498,9.53192
93,3.100,2.246,7.659,4.669,-0.19831,7.25577,15.76611
94,3.133,2.416,6.823,4.096,-10.75983,-13.00969,19.39945
95,3.167,2.925,6.178,2.627,-15.93412,-32.68880,28.09503
96,3.200,2.098,7.390,-0.228,-27.47805,-46.13067,38.43500
97,3.233,2.475,7.792,1.050,-21.60305,-54.36820,35.48081
98,3.267,-10.058,19.613,11.827,-9.26183,6.36066,-28.15393
99,3.300,-4.567,7.601,-0.200,-3.60691,51.99490,25.40750
100,3.333,0.437,11.714,-2.337,8.91020,31.31749,8.96568
101,3.367,-1.299,11.300,4.177,-13.11072,-9.12528,5.98717
102,3.400,-1.106,8.802,4.115,7.13939,0.62524,3.83556
103,3.433,-0.927,7.204,5.925,-8.09504,-7.28446,-0.19924
104,3.467,-1.662,7.486,4.212,-2.49762,-3.90991,-0.85907
105,3.500,-1.691,7.387,5.726,5.81386,3.52779,1.21811
106,3.533,-1.250,7.885,6.404,-1.02455,2.48697,2.79368
107,3.567,-0.970,9.439,5.063,-2.35452,1.29079,0.60047
108,3.600,-1.475,9.797,4.948,-0.56370,4.01262,-6.66938
109,3.633,-2.543,9.852,5.216,7.81930,3.71714,-12.15989
110,3.667,-2.312,7.222,0.749,16.29083,1.50448,-7.22595
111,3.700,-3.014,10.453,-0.183,26.88451,19.57152,-17.80531
112,3.733,-1.712,6.623,0.185,39.90951,35.79838,-27.95638
113,3.767,-3.057,6.658,2.397,-4.67771,51.58317,-33.50598
114,3.800,-1.149,11.849,5.847,-57.18527,61.30765,-4.85430
115,3.833,6.543,16.439,7.237,9.75769,-29.12204,13.85650
116,3.867,2.186,10.214,2.545,25.82493,-36.69736,-11.79111
117,3.900,-0.807,6.928,6.045,-9.08868,-14.52072,-30.24094
118,3.933,-0.510,7.291,4.025,-6.82127,-2.54788,-16.90895
119,3.967,0.901,8.300,4.042,11.83816,-9.60828,-7.64416
120,4.000,0.224,6.330,6.342,10.63584,-1.69176,2.63550
121,4.033,1.585,7.736,6.232,-17.79678,-0.53263,-0.73344
122,4.067,0.750,10.623,6.367,-7.61187,0.64573,-1.99197
123,4.100,-0.305,10.042,5.262,8.96261,15.71508,-5.10436
124,4.133,0.134,9.479,4.630,15.55746,17.59339,4.46854
125,4.167,2.295,9.211,3.982,9.40052,10.21154,14.49235
126,4.200,2.972,8.653,2.482,5.43714,-2.22727,18.12066
127,4.233,3.146,8.382,1.144,14.15205,-15.30972,24.35603
128,4.267,2.051,5.901,-0.658,11.00154,-44.95675,41.17558
129,4.300,2.170,4.268,0.108,-14.33214,-61.00594,40.42834
130,4.333,-2.800,14.341,13.830,-142.65434,-0.43837,-7.84214
131,4.367,-5.190,14.472,4.756,-47.73893,-25.09808,-28.49684
132,4.400,-0.704,9.388,5.817,-10.03369,56.98370,13.55972
133,4.433,0.834,11.312,8.711,-27.14663,3.97898,12.92317
134,4.467,-1.720,7.693,4.913,-3.88570,10.80750,10.16081
135,4.500,-0.479,6.456,5.760,-9.85418,15.36598,9.95807
136,4.533,-0.551,6.793,4.355,-16.06441,3.38587,3.79921
137,4.567,-0.709,7.321,5.015,2.66886,-6.51237,1.87044
138,4.600,-0.543,8.146,4.656,-1.03585,-12.54483,-0.88463
139,4.633,-1.312,10.439,4.309,12.06363,-14.17743,-9.31547
140,4.667,-1.835,11.240,3.675,21.31201,-18.97174,-14.99957
141,4.700,-1.939,9.819,3.282,21.80817,-15.85872,-13.40303
142,4.733,-2.219,8.901,3.002,22.22712,-11.24251,-15.62930
143,4.767,-2.010,7.346,1.983,17.07394,-5.41649,-21.41190
144,4.800,-2.548,4.352,1.870,-6.90361,8.30220,-18.52125
145,4.833,-3.864,3.001,1.649,-50.91104,21.03553,-29.40433
146,4.867,-1.034,8.688,6.094,-78.37770,73.23947,-10.02629
147,4.900,9.237,19.613,7.184,-38.21350,-5.73699,-0.13898
148,4.933,-0.461,13.135,1.936,22.72123,-31.40132,-17.72442
149,4.967,-2.862,8.707,9.257,-9.87029,5.93240,-16.00343
150,5.000,1.761,9.190,3.119,4.46391,-6.80951,-6.55514
151,5.033,1.104,7.045,4.393,17.36073,2.54812,-1.79390
152,5.067,1.640,6.313,5.197,6.99906,3.73984,-4.73294
153,5.100,1.136,7.394,5.734,2.70584,4.92699,-3.18233
154,5.133,0.779,8.589,5.034,-7.42934,-3.00890,2.12447
155,5.167,-0.357,10.337,3.776,2.48518,0.08512,8.05813
156,5.200,0.679,12.087,3.173,11.72002,6.83325,10.71894
157,5.233,1.806,11.077,2.277,16.47046,9.29819,4.03393
158,5.267,1.768,8.709,1.501,10.55021,4.82125,6.01760
159,5.300,2.251,6.994,1.035,3.94200,-2.19693,16.17290
160,5.333,2.202,5.403,0.246,-7.75748,-24.04609,25.18152
161,5.367,2.966,4.786,-1.129,-24.28472,-55.82197,31.46586
162,5.400,0.499,12.001,6.668,-66.78348,-10.81158,2.88012
163,5.433,-10.469,17.534,5.934,-73.17247,-46.69811,-46.35539
164,5.467,-1.725,10.577,4.096,2.27694,30.48552,-10.72266
165,5.500,0.620,12.022,9.167,-38.73415,-12.56972,5.98251
166,5.533,-1.818,9.040,4.004,-11.31510,-12.91838,11.15903
167,5.567,-1.891,6.585,6.121,1.53088,-4.72986,7.07890
168,5.600,-1.964,7.035,4.878,-9.16235,0.83172,3.97429
169,5.633,-0.977,7.503,4.450,16.19029,-0.51992,3.89837
170,5.667,-0.474,8.261,5.729,23.97744,-1.55019,-0.23887
171,5.700,-1.588,11.265,4.569,25.76188,-4.93740,-10.06908
172,5.733,-1.676,10.736,1.959,32.74698,-10.80538,-6.93056
173,5.767,-1.897,9.474,2.324,36.86931,-6.67574,-2.81261
174,5.800,-2.246,9.573,1.830,37.75888,-4.70130,-12.03841
175,5.833,-2.055,8.244,1.251,30.72092,4.00063,-22.79117
176,5.867,-2.001,6.978,1.114,5.09643,9.24390,-22.92076
177,5.900,-2.804,5.664,-0.569,-8.08513,25.29790,-29.26070
178,5.933,-3.416,6.612,4.095,-48.67081,100.26690,-21.21357
179,5.967,14.144,19.457,10.336,16.87709,-35.50169,43.48978
180,6.000,2.230,9.698,3.157,6.22103,-44.20588,-15.81183
181,6.033,-0.776,7.945,7.414,-23.37591,-6.30248,-28.58721
182,6.067,-0.444,7.692,4.295,-26.09701,-14.33894,-23.08207
183,6.100,1.174,6.773,4.152,1.78837,-9.30017,-8.92292
184,6.133,0.751,6.601,6.915,14.84928,-5.59337,-3.31343
185,6.167,0.912,8.945,6.111,5.41594,-2.76481,7.37076
186,6.200,1.924,10.226,5.583,-4.60633,-4.83348,-1.69658
187,6.233,0.420,9.158,6.380,-2.47155,-9.08158,-2.25051
188,6.267,0.300,9.869,5.127,-4.56165,1.03256,2.60077
189,6.300,0.669,9.952,4.266,32.53134,-2.52449,8.71463
190,6.333,2.289,10.048,2.915,37.65893,-7.04257,14.97337
191,6.367,2.637,9.773,0.492,35.72551,-10.60787,22.84475
192,6.400,2.122,7.839,-0.862,34.79208,-41.16518,32.56530
193,6.433,2.111,6.068,0.288,18.81457,-51.69861,28.95393
194,6.467,-2.877,11.958,5.941,-44.21698,5.36290,-1.54670
195,6.500,-5.591,14.853,4.519,-9.29557,-7.71762,-24.53656
196,6.533,-3.699,6.879,2.560,-29.85598,57.62296,12.99637
197,6.567,0.524,10.821,7.912,-8.68149,29.73619,20.28441
198,6.600,1.330,9.396,5.348,7.14489,-5.04000,12.01457
199,6.633,-0.525,7.230,5.639,3.26302,2.50105,1.02613
200,6.667,-1.751,7.899,4.754,-14.04913,-8.29664,-6.33656
201,6.700,-2.657,8.942,4.569,-4.60774,-1.36975,3.73009
202,6.733,-1.062,7.800,5.346,2.73111,-1.60153,-0.28446
203,6.767,-0.378,8.023,4.699,0.10882,-15.61181,-5.56667
204,6.800,-0.877,8.435,3.891,3.16248,-14.48041,-10.56771
205,6.833,-1.884,8.765,4.041,4.94728,-9.94656,-10.95445
206,6.867,-2.607,9.150,3.067,6.33607,-4.73041,-12.53427
207,6.900,-2.498,8.769,2.656,9.30260,6.25475,-13.20719
208,6.933,-2.301,7.388,2.815,-4.74939,16.90220,-20.11673
209,6.967,-2.288,6.554,3.097,-29.70693,27.98350,-24.54515
210,7.000,-1.848,5.217,0.665,-44.04934,35.43199,-27.30157
211,7.033,-2.059,8.645,3.968,-40.25951,89.60879,-20.32017
212,7.067,10.971,18.884,10.699,8.61820,-26.79916,50.64890
213,7.100,0.352,10.329,1.212,15.38217,-31.48190,-24.37305
214,7.133,-1.751,8.885,6.217,-47.40706,-4.36396,-37.02792
215,7.167,0.793,11.092,4.224,-20.14672,4.73920,-7.36025
216,7.200,1.160,8.478,5.155,14.75957,30.01594,6.39650
217,7.233,1.808,7.120,5.587,-2.96892,5.88160,7.49231
218,7.267,2.057,8.253,5.129,-1.22170,-5.20912,-1.62913
219,7.300,1.388,8.174,4.884,2.05155,-4.89363,-0.20480
220,7.333,0.653,8.385,5.049,8.99320,-2.84547,0.42696
221,7.367,0.391,8.920,4.778,6.67688,2.47220,1.85359
222,7.400,1.201,9.719,4.176,10.13137,-1.33574,6.69978
223,7.433,1.714,10.149,3.366,18.36809,-7.00111,6.86990
224,7.467,1.794,10.094,2.799,25.03105,-6.19968,6.77685
225,7.500,1.697,8.721,2.436,25.98184,-11.21816,9.57578
226,7.533,1.243,7.055,1.187,11.75970,-20.10286,28.38817
227,7.567,2.031,6.222,-0.035,-5.99062,-40.22491,40.51954
228,7.600,1.898,7.304,-0.486,-11.68659,-37.68004,39.12357
229,7.633,-8.891,19.613,19.558,34.95878,63.14971,-23.51743
230,7.667,-4.449,7.254,3.372,-25.43287,37.53300,15.61656
231,7.700,0.970,10.577,6.984,-0.32100,40.61270,18.30949
232,7.733,0.482,10.053,6.445,-11.53543,-5.36272,0.99822
233,7.767,-1.424,6.361,4.967,18.74914,-21.84728,3.12063
234,7.800,-1.400,6.468,5.846,-3.95709,-7.72174,-6.89477
235,7.833,-2.911,7.669,4.422,-2.34169,0.15567,2.65171
236,7.867,-0.942,6.845,6.274,8.79716,2.82271,-0.33015
237,7.900,-0.511,8.251,6.713,2.05753,-9.47730,-0.08314
238,7.933,-0.601,9.421,5.418,3.59629,-10.51194,-9.45791
239,7.967,-1.697,8.510,4.236,14.08319,-9.44231,-7.43806
240,8.000,-2.860,8.969,2.479,23.55822,-4.29844,-9.51160
241,8.033,-2.619,9.239,1.793,33.62454,20.31593,-21.30563
242,8.067,-2.228,7.266,2.080,21.19706,24.55257,-27.92684
243,8.100,-2.746,7.840,0.407,-11.12738,36.09151,-30.29930
244,8.133,-2.683,7.562,1.061,-41.88906,53.50475,-22.20894
245,8.167,6.116,17.772,10.286,-8.71888,21.36267,21.70813
246,8.200,4.212,9.978,2.753,-12.96076,-46.74913,2.49114
247,8.233,-3.286,9.088,8.925,-46.93483,-32.96564,-31.66856
248,8.267,1.050,8.172,3.714,-22.52466,-15.64129,-20.61454
249,8.300,0.447,6.839,5.329,7.57233,7.03757,-8.74707
250,8.333,0.541,5.203,6.491,-3.12673,-8.07136,-4.71196
251,8.367,1.310,6.711,5.453,-18.19699,-6.44983,-8.36476
252,8.400,0.792,8.051,5.399,-23.99045,-8.75215,0.31503
253,8.433,0.175,10.264,4.877,-4.80197,0.67112,1.57970
254,8.467,0.046,10.871,4.627,12.61702,2.15757,3.08706
255,8.500,1.537,11.392,3.810,9.17566,1.51480,5.92694
256,8.533,1.915,10.946,2.720,17.39927,1.88590,7.21342
257,8.567,1.348,8.365,3.193,23.28514,1.18946,9.33672
258,8.600,1.197,6.826,3.352,8.38652,-0.18944,13.49431
259,8.633,1.174,5.629,1.733,-3.54431,-20.30959,19.99440
260,8.667,2.676,5.543,0.591,-25.21128,-39.11783,25.82826
261,8.700,3.257,7.279,2.245,-39.83304,-44.00487,24.19263
262,8.733,-11.649,19.613,13.249,-6.66512,6.45163,-48.34954
263,8.767,-3.445,8.703,1.275,-9.66060,52.78443,21.09179
264,8.800,1.855,12.891,7.640,-2.18432,6.03912,7.74318
265,8.833,-2.878,11.684,4.159,-4.74315,-10.01632,2.28220
266,8.867,-1.551,8.458,5.688,-2.98569,-1.50165,-8.77479
267,8.900,-2.226,8.000,4.679,-19.30772,-2.57586,2.64328
268,8.933,-1.092,7.793,3.554,5.87560,0.88161,2.41888
269,8.967,-1.101,6.714,5.757,6.73322,-10.49196,-1.25697
270,9.000,-1.174,6.734,5.357,5.55496,-12.62821,-4.30704
271,9.033,-0.730,7.714,5.715,2.15852,-10.59739,-11.28307
272,9.067,-1.020,8.061,4.886,0.78260,-15.87834,-6.29194
273,9.100,-2.445,9.256,3.583,3.17062,-6.36458,-3.74073
274,9.133,-2.863,10.939,2.264,3.92279,2.34740,-6.61241
275,9.167,-2.029,9.482,1.865,21.44848,8.86386,-13.82472
276,9.200,-1.718,7.575,0.623,2.10042,14.44249,-19.93423
277,9.233,-2.852,6.646,-0.995,-14.64573,36.90687,-18.25412
278,9.267,-2.269,8.842,4.315,-39.17321,94.30992,-19.55926
279,9.300,8.881,18.857,9.803,4.21115,-20.12384,38.32499
280,9.333,4.219,9.355,6.530,5.52966,-37.56230,-22.27750
281,9.367,-2.362,9.032,7.585,-34.29121,1.33252,-17.71336
282,9.400,0.651,8.700,4.290,-17.37666,-8.73600,-9.29761
283,9.433,1.190,6.163,6.558,30.39833,18.40817,-5.25627
284,9.467,1.899,5.952,5.995,-0.95923,-6.95290,-5.55230
285,9.500,1.240,7.346,5.215,-7.81756,-4.15275,-6.83646
286,9.533,0.855,8.752,4.487,1.38834,2.84830,-1.10666
287,9.567,0.113,10.821,4.025,18.61349,2.27882,-0.62788
288,9.600,0.793,11.635,3.823,18.15539,1.46715,5.13632
289,9.633,1.855,11.061,2.758,15.73293,2.43713,5.18288
290,9.667,1.693,9.431,2.278,17.90918,3.54638,7.77841
291,9.700,1.153,7.611,2.808,14.91356,-0.92726,15.49035
292,9.733,1.671,6.323,3.304,6.25428,-1.98921,20.38225
293,9.767,2.195,5.346,3.663,-20.02340,-15.96860,23.68462
294,9.800,3.134,4.676,1.187,-46.17116,-37.50579,28.53120
295,9.833,1.998,8.661,1.232,-63.53977,-42.02123,22.08400
296,9.867,-9.700,19.605,12.024,-13.85839,4.91759,-26.23960
297,9.900,-2.518,8.938,0.280,8.55741,13.49996,18.82211
298,9.933,0.475,12.928,9.333,34.66792,-3.35182,9.61905
299,9.967,-1.940,12.764,4.808,20.85046,-25.99359,-0.22809
300,10.000,-2.153,8.748,4.524,31.30624,-6.33653,-4.41257
301,10.033,-2.282,7.365,4.147,-11.55890,-2.07701,-0.79868
302,10.067,-1.948,7.991,3.324,5.60754,-1.28808,5.78929
303,10.100,-1.514,7.379,5.116,14.32345,-3.67384,4.59234
304,10.133,-0.656,6.893,4.884,-0.43635,-7.28363,2.09036
305,10.167,-0.591,6.652,4.956,-1.98198,-11.09078,-5.58042
306,10.200,-1.114,7.647,4.817,-8.74817,-15.55630,-8.88572
307,10.233,-1.652,9.103,4.022,0.42950,-10.67822,-8.17607
308,10.267,-1.870,9.639,3.297,11.67235,-5.50208,-9.84522
309,10.300,-2.471,9.869,2.902,11.36958,-5.45377,-13.79576
310,10.333,-2.526,9.313,2.013,13.35896,4.86688,-18.00202
311,10.367,-1.729,8.133,2.111,2.65275,11.00547,-26.84704
312,10.400,-1.600,6.614,0.584,-19.54262,7.07329,-26.31921
313,10.433,-3.026,5.938,0.144,-33.68286,42.23055,-27.47281
314,10.467,3.345,15.875,8.762,1.37795,56.21193,2.92333
315,10.500,1.118,14.174,4.096,-22.68860,-20.85736,4.06478
316,10.533,-1.518,11.534,5.044,-8.73455,-11.25155,-23.20605
317,10.567,0.483,10.771,6.443,-16.49055,-16.77252,-3.37442
318,10.600,1.797,7.637,4.392,19.25954,11.58672,-7.42050
319,10.633,1.865,5.526,8.465,13.06620,-10.64692,-9.15634
320,10.667,0.804,6.234,4.309,-19.26696,-7.17569,-14.83862
321,10.700,-0.876,6.812,3.875,-12.20525,9.27812,-1.05429
322,10.733,0.003,8.625,5.121,13.06572,25.08267,14.65032
323,10.767,1.043,11.175,5.722,15.70915,17.98862,12.04119
324,10.800,1.259,10.962,4.304,15.69473,16.91184,8.49188
325,10.833,1.472,9.794,3.503,19.42721,20.71500,9.09852
326,10.867,1.767,7.709,3.151,16.81590,15.33834,10.59060
327,10.900,2.006,6.742,2.009,4.45052,1.34836,18.35636
328,10.933,1.969,5.837,1.084,-5.47787,-14.97664,27.05637
329,10.967,2.725,6.028,0.636,-25.21426,-40.46810,27.49163
330,11.000,-1.721,12.174,10.311,-39.72117,28.32592,-0.47837
331,11.033,-5.172,14.872,1.591,-45.93583,-45.46490,-20.55318
332,11.067,1.249,12.705,4.056,2.79228,51.28915,4.24843
333,11.100,-1.554,12.901,6.524,-29.05842,10.31036,7.17615
334,11.133,-1.496,9.724,4.437,-2.48468,2.61575,5.85849
335,11.167,-1.551,8.140,4.919,-18.56882,-1.83516,9.45645
336,11.200,-0.827,7.618,3.333,-8.41089,-3.55381,7.82226
337,11.233,-0.402,5.826,5.291,4.73798,-10.23075,4.23957
338,11.267,-0.175,5.764,5.740,-2.58623,-21.60925,1.43289
339,11.300,-0.234,7.729,4.748,-0.53459,-21.99432,-10.99325
340,11.333,-1.208,9.621,4.036,0.17745,-27.04783,-10.52333
341,11.367,-1.901,10.604,2.391,15.64815,-24.13072,-12.68008
342,11.400,-2.475,10.641,2.306,36.23425,-15.15447,-15.92141
343,11.433,-3.072,10.295,2.046,20.22838,-9.96998,-16.46033
344,11.467,-2.362,7.358,1.309,2.54722,-1.30501,-12.16875
345,11.500,-2.789,6.022,0.591,-26.11992,15.01003,-11.96396
346,11.533,-2.060,4.957,-0.710,-26.42069,46.93561,-23.73656
347,11.567,-1.020,11.571,7.688,-23.92761,82.39487,2.15120
348,11.600,6.484,18.825,9.499,-26.42071,-16.28779,16.49343
349,11.633,-1.135,10.701,5.122,0.44555,-17.44331,-30.41034
350,11.667,-1.317,11.483,5.413,-23.00242,1.11431,-3.28333
351,11.700,1.894,7.913,4.271,21.14618,21.18484,-2.84880
352,11.733,1.957,6.807,5.525,8.90059,1.61010,-6.91964
353,11.767,2.571,7.307,3.987,-0.41508,-7.78787,-15.15794
354,11.800,0.484,7.773,4.744,-10.16864,-3.29190,-2.12346
355,11.833,-0.291,7.874,4.964,1.26674,5.04868,7.17724
356,11.867,0.215,8.916,5.685,7.65386,5.10428,5.57249
357,11.900,0.980,9.991,4.998,8.88138,1.28610,3.92831
358,11.933,1.636,10.634,3.373,22.04060,0.44489,3.41654
359,11.967,1.209,10.407,2.518,35.73246,4.17307,9.83726
360,12.000,0.711,9.275,2.358,27.90341,2.69132,21.61631
361,12.033,1.432,6.757,1.624,14.56471,-4.24462,32.79153
362,12.067,3.105,5.911,1.515,-12.03687,-19.61317,24.44317
363,12.100,3.113,4.857,1.207,-39.16570,-49.07302,30.00296
364,12.133,-0.620,9.917,10.446,-50.06799,14.75313,-0.63619
365,12.167,-8.622,15.427,4.828,-60.50952,-46.26313,-21.18966
366,12.200,0.513,9.696,1.865,13.25535,27.97807,24.45317
367,12.233,0.796,12.921,12.400,5.72434,-3.50724,0.69876
368,12.267,-2.783,10.992,4.645,12.43561,-7.70965,-5.32170
369,12.300,-1.981,8.710,5.725,-3.33836,7.10238,-5.46652
370,12.333,-1.355,7.779,3.878,-10.51510,5.06007,4.25204
371,12.367,-1.703,7.517,4.652,2.24604,2.87386,2.59459
372,12.400,-1.371,6.908,5.377,4.70275,3.66664,2.28938
373,12.433,-0.546,6.857,5.073,-0.36821,-2.21054,-2.79528
374,12.467,-0.641,7.878,4.484,-2.67232,-7.71376,-6.40061
375,12.500,-1.972,9.523,3.780,12.71612,-5.65445,-10.10760
376,12.533,-2.150,9.261,3.687,28.83647,-2.08486,-10.89266
377,12.567,-1.988,9.669,3.241,22.39223,-3.52873,-9.07327
378,12.600,-2.950,8.686,2.464,19.73037,2.74670,-9.75376
379,12.633,-2.466,7.156,1.997,6.01198,9.53703,-11.26836
380,12.667,-1.496,5.827,0.856,-25.61269,13.59142,-15.57463
381,12.700,-2.859,5.706,-0.161,-39.16202,29.70098,-27.81006
382,12.733,-1.517,12.195,8.852,8.17014,64.01755,2.55107
383,12.767,4.733,18.171,6.261,-46.23138,-8.30259,22.07463
384,12.800,-1.855,11.245,6.098,-3.04523,-30.48969,-30.07507
385,12.833,-0.516,9.218,4.810,-33.48002,-6.60563,-13.98279
386,12.867,1.732,8.749,4.474,14.87556,19.70009,-9.43217
387,12.900,1.218,7.291,6.357,10.19968,7.40012,-6.36555
388,12.933,1.520,6.527,4.068,-10.30364,1.97355,-8.80630
389,12.967,0.259,6.094,5.159,-4.78009,6.49940,1.03997
390,13.000,0.887,7.237,5.151,-2.82596,8.77979,2.48939
391,13.033,1.039,9.352,5.016,1.52601,0.61458,7.95412
392,13.067,1.399,10.394,4.003,2.25604,-3.46660,5.71046
393,13.100,1.537,10.649,3.982,12.80304,-6.54381,2.01413
394,13.133,0.326,10.400,3.297,13.48123,-11.70453,-0.34185
395,13.167,0.976,9.297,2.273,13.60994,-7.58068,6.48614
396,13.200,1.252,7.916,1.980,7.86509,-7.32951,15.42242
397,13.233,1.741,6.265,0.955,4.12238,-29.15576,19.49104
398,13.267,2.175,5.688,-0.271,-5.24183,-43.98821,25.79588
399,13.300,0.537,8.998,4.108,-31.95248,-28.61389,11.44249
400,13.333,-10.597,18.720,14.075,-33.60222,-16.68291,-68.36284
401,13.367,-2.611,7.467,2.821,21.19195,65.52742,4.36169
402,13.400,2.917,11.453,8.885,-15.17729,3.13265,21.60561
403,13.433,-1.037,10.744,4.334,-0.46101,-7.25633,13.18160
404,13.467,-1.914,7.274,6.236,-11.56490,-10.18710,8.72060
405,13.500,-1.801,7.042,4.266,-20.09078,-3.09834,8.93486
406,13.533,-1.333,6.825,5.052,-3.30137,-0.57244,7.86706
407,13.567,-0.297,5.904,6.522,-1.93464,-4.65936,-1.00010
408,13.600,-0.367,7.604,5.508,-9.88196,-16.68599,-3.95901
409,13.633,-1.362,10.112,4.031,-0.04680,-17.67794,-7.73304
410,13.667,-2.696,10.491,3.744,21.83013,-9.78578,-17.01606
411,13.700,-2.877,9.721,3.601,29.17336,-2.10670,-13.39518
412,13.733,-2.387,8.906,3.057,18.66856,2.74152,-10.67134
413,13.767,-1.480,7.129,2.464,0.15327,5.03039,-10.45727
414,13.800,-1.741,6.019,2.934,-26.68798,0.86445,-18.73966
415,13.833,-1.815,5.776,1.453,-27.04921,5.07473,-23.78421
416,13.867,-1.322,7.139,1.892,-22.09585,49.97212,-30.43473
417,13.900,6.670,18.717,12.119,25.30652,2.14104,17.73511
418,13.933,1.335,11.293,2.194,8.13726,-36.85262,-2.92844
419,13.967,-3.258,10.099,5.719,-17.29188,-7.24346,-26.51014
420,14.000,0.024,10.820,3.898,4.74433,0.16295,-10.14671
421,14.033,1.609,8.087,4.562,13.50331,14.95842,-3.35047
422,14.067,1.795,7.124,5.703,-3.83233,-4.95769,-4.98674
423,14.100,1.136,7.406,4.216,-12.11007,-0.70614,-8.54793
424,14.133,1.132,6.414,5.758,-9.56532,-2.86396,-3.34084
425,14.167,0.895,7.759,5.635,-8.68438,-6.88408,2.85897
426,14.200,-0.324,9.197,4.676,-11.34357,-5.68529,8.12819
427,14.233,0.391,10.724,4.406,1.84960,3.16122,11.59723
428,14.267,1.730,10.610,4.654,4.36795,-5.86103,9.54304
429,14.300,1.476,9.568,3.530,13.14629,-12.06520,2.03462
430,14.333,1.322,9.950,2.281,23.33896,-11.73797,6.93627
431,14.367,2.116,8.020,1.125,27.17836,-14.59874,24.91019
432,14.400,1.194,5.202,-0.157,13.77022,-38.97798,47.19049
433,14.433,0.331,5.199,-0.577,5.48310,-54.06534,49.26960
434,14.467,-7.650,19.613,16.716,-15.88355,54.68392,-9.65314
435,14.500,-6.010,10.426,4.116,-16.08491,28.02457,-16.29094
436,14.533,-0.501,5.278,5.202,19.48934,42.32367,13.09154
437,14.567,1.857,9.656,8.175,-20.14732,-0.56455,9.51411
438,14.600,-1.951,8.397,4.803,-6.97858,-0.60339,0.99992
439,14.633,-1.688,7.860,6.160,-9.76872,11.15864,-8.01606
440,14.667,-1.392,8.748,4.324,-0.47459,0.89147,-5.35386
441,14.700,-1.008,7.989,5.232,14.83603,-4.91266,0.48256
442,14.733,-1.279,8.648,4.757,10.08242,-7.32280,3.38888
443,14.767,-1.331,9.773,3.710,8.55679,-16.84620,-1.52775
444,14.800,-0.726,9.236,3.569,13.06806,-26.07530,-9.62815
445,14.833,-1.053,8.341,4.123,12.08398,-29.84731,-17.08395
446,14.867,-2.620,7.532,4.254,5.28380,-24.01283,-15.60999
447,14.900,-3.122,7.230,3.521,3.90611,-9.20680,-15.83524
448,14.933,-2.612,6.557,2.231,1.44126,11.70661,-24.86643
449,14.967,-2.771,6.321,1.212,-18.29277,25.29840,-30.62577
450,15.000,-2.914,5.696,-0.287,-45.39894,50.64075,-32.91169
451,15.033,-4.394,10.725,8.076,-67.54537,128.87365,-13.45465
452,15.067,9.294,18.561,3.715,-58.79936,-5.53719,26.42490
453,15.100,-3.357,11.594,2.776,-21.18932,12.02302,-39.30833
454,15.133,-3.331,9.058,9.332,-82.63871,13.64996,-20.36744
455,15.167,2.196,9.590,4.447,3.03347,5.73449,-4.09449
456,15.200,1.171,7.172,5.833,14.98031,0.81694,-4.61810
457,15.233,0.225,6.060,5.470,-4.29735,0.94910,-4.00667
458,15.267,1.521,7.807,5.172,-6.47577,5.62990,-0.70587
459,15.300,2.097,8.457,5.210,3.21673,3.48709,3.76641
460,15.333,0.277,8.916,4.956,8.82305,-4.20656,0.95429
461,15.367,0.081,10.182,3.415,3.27302,2.84913,2.44974
462,15.400,1.187,11.401,1.765,18.20067,8.94302,7.55776
463,15.433,2.061,10.938,2.813,30.35668,12.76391,18.62679
464,15.467,1.503,8.979,2.916,26.07728,11.02610,18.46487
465,15.500,1.664,7.322,3.085,19.18864,7.57536,19.34327
466,15.533,2.062,6.550,3.512,6.03321,-9.56568,22.19116
467,15.567,3.166,5.497,1.458,-22.74320,-34.30307,27.42839
468,15.600,2.942,7.627,1.872,-31.67577,-44.32944,29.12403
469,15.633,-11.435,19.609,13.898,4.67874,45.49431,-24.88541
470,15.667,-3.395,10.795,1.976,-1.47212,6.15785,16.26237
471,15.700,0.267,12.213,5.582,29.91262,23.04166,12.74770
472,15.733,-1.238,10.847,5.654,15.10357,-8.46849,7.44423
473,15.767,-1.729,8.611,4.313,17.42170,-11.65085,3.76386
474,15.800,-2.146,7.897,3.808,-5.38909,3.19988,1.52467
475,15.833,-1.561,7.955,3.766,7.55842,0.69499,5.22818
476,15.867,-1.027,7.334,4.858,5.17462,-1.73844,3.70822
477,15.900,-0.356,7.695,4.988,1.47664,-10.34293,-0.24368
478,15.933,-0.350,8.279,4.156,-3.29706,-18.74155,-7.54209
479,15.967,-1.132,8.823,4.037,2.80442,-22.75564,-10.06396
480,16.000,-1.805,9.195,3.835,5.93610,-21.64251,-12.97254
481,16.033,-2.421,9.182,3.199,10.70293,-17.14253,-11.43468
482,16.067,-2.483,9.032,3.121,14.14574,-8.23994,-10.44698
483,16.100,-1.964,8.554,2.801,14.16244,-3.95979,-8.81489
484,16.133,-1.805,7.764,2.361,7.66119,4.94084,-13.90117
485,16.167,-1.801,7.091,1.962,-5.29438,7.17027,-14.78143
486,16.200,-2.119,6.654,1.195,-26.25552,13.39236,-16.87622
487,16.233,-2.384,7.541,1.343,-40.19638,33.49105,-21.62163
488,16.267,-1.228,11.202,6.846,-11.59801,54.59124,-13.11374
489,16.300,5.054,15.786,8.860,-7.59082,-9.40995,28.14349
490,16.333,-0.638,9.793,4.386,-5.06414,-17.89162,-7.66465
491,16.367,-2.734,10.661,4.425,-34.38418,15.67818,-20.72398
492,16.400,1.878,12.430,5.204,-0.59289,27.37922,3.24149
493,16.433,2.397,9.717,5.833,8.93248,5.54722,3.21531
494,16.467,1.692,8.214,4.593,-13.56916,-8.03683,-17.14304
495,16.500,0.641,7.797,4.383,-8.06506,-5.98844,-15.18995
496,16.533,0.742,7.966,4.874,0.74089,-0.07090,-12.59387
497,16.567,0.972,8.312,4.559,-1.36960,-5.35396,-7.68756
498,16.600,0.577,8.859,4.289,-0.06382,-4.43106,-0.90647
499,16.633,0.979,9.203,4.707,6.31423,-4.42206,-0.38262
500,16.667,1.659,9.563,5.091,7.90383,-9.67470,-5.08606
501,16.700,1.607,9.497,4.207,5.78074,-13.87496,-9.08199
502,16.733,1.444,8.681,3.471,0.96068,-19.74977,-5.83038
503,16.767,1.798,8.108,2.782,-5.13381,-28.67410,-0.65982
504,16.800,2.406,7.881,2.820,-12.01340,-40.80850,2.29547
505,16.833,2.337,7.803,2.794,-18.40493,-54.26773,3.76333
506,16.867,1.717,9.443,3.903,-12.24332,-48.28104,-2.93193
507,16.900,-0.869,11.049,5.540,-8.27723,-46.15039,-20.82195
508,16.933,-2.147,9.304,3.371,-16.69160,-42.67175,-22.34379
509,16.967,-1.034,10.429,3.336,-6.28808,-23.57816,-6.11868
510,17.000,-0.073,9.528,4.175,-6.98414,-37.06658,-3.38976
511,17.033,-0.752,8.942,3.610,-2.66357,-40.96684,-6.01650
512,17.067,-0.608,9.646,3.737,-6.80131,-47.11023,-4.57931
513,17.100,-0.772,9.336,3.203,-2.93892,-50.62856,-2.18801
514,17.133,-0.485,9.194,3.402,-1.86744,-47.59013,-4.24064
515,17.167,-0.477,9.679,3.505,-2.78159,-46.12804,-10.14315
516,17.200,-1.094,9.505,3.376,-4.07934,-45.11955,-13.25477
517,17.233,-1.237,8.423,4.282,-6.22581,-42.61538,-19.83980
518,17.267,-3.330,7.476,5.521,-18.11968,-38.48164,-23.53795
519,17.300,-3.412,8.599,5.693,-23.58328,-29.87507,-20.14026
