frame_number,sync_timestamp,accel_x,accel_y,accel_z,gyro_x,gyro_y,gyro_z
0,0.000,-0.136,9.764,1.889,-2.46565,1.77099,-1.21374
1,0.033,0.035,9.748,1.909,-4.64652,2.46738,-0.90041
2,0.067,0.040,9.751,1.787,-4.91482,2.97906,-1.10861
3,0.100,0.098,9.876,1.733,-4.70441,2.34080,-1.30184
4,0.133,0.035,9.885,1.781,-2.95698,2.39609,-1.65485
5,0.167,0.027,9.879,1.616,-3.18975,2.12443,-2.17452
6,0.200,0.041,9.876,1.779,-2.14183,1.02909,-2.20221
7,0.233,0.099,9.914,1.812,-1.42805,0.59091,-2.33882
8,0.267,0.117,9.939,1.777,-1.12284,-0.53794,-2.72938
9,0.300,0.071,9.766,1.753,-2.16002,-0.27477,-3.43512
10,0.333,0.100,9.744,1.593,-2.53239,-0.61174,-3.36550
11,0.367,0.108,9.853,1.723,-2.74870,-0.72576,-3.76501
12,0.400,0.198,9.881,1.900,-2.19568,-1.12437,-3.69987
13,0.433,0.249,9.936,1.703,-1.89626,-2.20489,-3.62231
14,0.467,0.107,9.672,1.625,-2.68254,-0.91228,-2.24075
15,0.500,0.081,9.693,1.565,-1.67503,-2.97264,-0.16026
16,0.533,0.008,9.778,1.435,-1.49403,-3.31507,-0.88455
17,0.567,-0.136,9.993,1.198,-2.32141,-0.62874,-4.14880
18,0.600,0.020,10.152,1.170,-1.02176,1.53884,-5.28186
19,0.633,-0.113,10.268,1.402,1.42184,2.85690,-2.36656
20,0.667,-0.167,10.088,1.580,7.19178,2.33082,-0.47868
21,0.700,0.122,9.375,1.646,5.53291,4.54519,-3.60938
22,0.733,0.030,9.392,1.315,-1.41130,4.46409,-3.76694
23,0.767,0.200,10.096,1.477,-3.29312,5.01579,-4.57164
24,0.800,0.226,10.349,1.515,3.11576,3.65983,-3.44688
25,0.833,0.211,9.746,1.730,7.81550,8.61288,1.61225
26,0.867,-0.150,10.043,1.947,14.69077,16.33742,5.95612
27,0.900,-0.148,10.012,1.380,18.42381,20.48829,7.25643
28,0.933,0.674,10.098,1.374,16.34621,17.93998,6.83594
29,0.967,1.562,10.311,0.958,9.98002,13.08087,1.71114
30,1.000,1.182,10.620,1.329,8.56278,10.74184,-5.30934
31,1.033,0.228,10.046,1.048,13.23459,14.70805,-7.94116
32,1.067,0.322,9.280,1.101,16.11073,14.86216,-4.59080
33,1.100,0.778,9.531,0.873,13.74080,14.06188,-2.88946
34,1.133,1.115,9.611,0.895,12.34773,8.28515,-3.19732
35,1.167,1.201,9.557,0.699,8.14828,3.29901,-4.48876
36,1.200,1.358,9.398,0.488,0.44612,1.89689,-1.43261
37,1.233,1.491,9.687,-0.053,-8.50648,-4.85856,-2.30165
38,1.267,1.535,9.972,0.156,-8.09116,-8.55000,-5.47121
39,1.300,1.362,10.370,1.191,6.40687,-6.73467,-4.47017
40,1.333,0.259,11.312,2.755,3.76138,-0.72048,-8.25674
41,1.367,-1.173,10.362,3.491,0.66252,3.78084,-3.76357
42,1.400,-0.037,9.819,2.854,-8.73686,6.59828,13.46133
43,1.433,0.663,10.242,3.112,-18.41892,2.22149,12.50000
44,1.467,0.037,9.195,2.351,-11.66167,0.50026,11.78122
45,1.500,-1.148,8.676,3.127,-6.23367,15.24928,4.48568
46,1.533,-1.979,9.409,3.450,0.88152,16.08993,6.57273
47,1.567,-0.040,10.198,3.662,6.36909,10.89454,9.98537
48,1.600,0.891,10.762,2.696,8.01157,-3.40054,16.77629
49,1.633,0.316,10.132,2.379,11.71621,-16.85795,4.45607
50,1.667,0.065,9.775,2.454,12.04767,-22.59438,-9.96410
51,1.700,-0.862,9.828,1.328,26.50378,-22.06019,-12.42715
52,1.733,-2.427,7.443,0.472,23.27638,-19.11472,-6.06869
53,1.767,-2.785,3.266,-1.495,12.92841,29.60104,0.43936
54,1.800,-2.402,2.680,-1.676,34.19663,57.52799,-2.43057
55,1.833,-2.340,4.871,1.763,-2.90316,39.65276,-20.47951
56,1.867,6.757,19.613,12.478,-199.01029,-28.56262,2.72685
57,1.900,-1.276,19.057,4.426,44.72916,-79.43464,-15.81067
58,1.933,-0.647,10.314,4.656,-13.15907,12.71441,-25.60232
59,1.967,-1.177,11.405,4.354,7.81094,25.00781,-4.07520
60,2.000,0.643,6.671,3.255,8.60279,7.67606,1.77530
61,2.033,1.974,6.438,2.609,-18.16340,3.82986,-9.08609
62,2.067,2.518,6.679,3.260,-7.47780,-6.73319,-6.32444
63,2.100,1.618,6.558,3.708,-2.03490,-12.81873,0.20525
64,2.133,0.663,8.171,3.532,-8.66963,-8.53875,-0.05367
65,2.167,0.049,10.344,2.767,-18.77931,-7.40172,-2.25645
66,2.200,0.671,10.855,1.981,-9.20963,-0.99748,1.42155
67,2.233,0.403,9.699,1.937,-4.52921,5.28397,-3.18232
68,2.267,0.110,9.248,1.777,-7.87229,11.31750,-2.82572
69,2.300,0.270,9.599,1.633,-14.58792,15.19570,0.63710
70,2.333,1.044,10.366,1.325,-8.26638,12.59745,8.68688
71,2.367,1.825,9.833,1.662,3.66208,5.65383,6.87955
72,2.400,1.715,9.553,1.396,0.89466,-6.54904,2.77817
73,2.433,1.064,9.643,1.111,-2.59932,-12.49179,4.09820
74,2.467,0.892,9.718,0.989,-4.37437,-15.48351,5.34305
75,2.500,0.795,9.923,1.012,-1.58895,-17.38226,4.78738
76,2.533,0.900,9.886,0.845,0.39558,-19.59549,6.92549
77,2.567,0.794,10.599,0.969,7.43945,-25.12219,8.25480
78,2.600,1.068,11.080,0.857,15.09895,-31.39989,7.32415
79,2.633,0.301,11.377,1.302,14.55528,-21.11234,-3.23027
80,2.667,-0.154,10.541,1.937,5.96899,-4.70851,-3.96520
81,2.700,-0.218,10.157,2.413,-7.26338,5.10382,-0.16785
82,2.733,0.109,10.022,1.451,-10.19833,8.50643,8.11992
83,2.767,-0.150,10.106,2.140,-2.98973,12.94604,11.75234
84,2.800,-0.401,9.405,3.257,-1.75351,17.45520,5.97093
85,2.833,-0.182,8.633,3.185,-4.06909,15.84762,-2.32118
86,2.867,-0.595,8.873,3.320,9.24866,12.63208,-4.72927
87,2.900,-0.289,9.745,3.409,10.18380,8.37641,-4.55557
88,2.933,-0.727,10.515,2.607,8.41830,5.61194,-1.83275
89,2.967,-0.835,10.199,2.724,8.42633,0.29530,4.29470
90,3.000,-0.959,8.902,1.842,12.88830,-5.74349,7.26422
91,3.033,-0.640,8.787,1.449,10.88987,-4.56799,2.54444
92,3.067,-0.168,9.344,1.285,14.00265,-4.71127,-1.80013
93,3.100,-0.919,8.972,0.844,18.58858,-6.89987,-8.50032
94,3.133,-0.944,7.516,-0.552,16.77477,-3.64908,-14.17439
95,3.167,-1.320,5.392,-0.757,5.40376,9.80512,-19.66552
96,3.200,-1.346,4.727,-1.058,-12.83349,8.64044,-20.99779
97,3.233,-1.557,4.960,3.025,-56.81818,46.97789,-15.08511
98,3.267,10.152,19.613,8.828,-24.24553,-27.77438,67.21392
99,3.300,-2.341,15.364,2.975,-4.61277,-51.73584,-33.27090
100,3.333,-5.481,12.718,5.689,-33.50061,20.33241,-25.93609
101,3.367,-1.150,11.955,2.567,21.57437,45.53090,4.28611
102,3.400,0.314,7.806,2.775,-1.36291,31.22866,6.71816
103,3.433,2.011,6.480,3.634,-17.45968,8.00141,-6.17589
104,3.467,2.195,6.766,2.111,-12.66104,0.59912,-9.11961
105,3.500,1.803,6.939,3.740,6.80892,-5.82650,0.52356
106,3.533,0.980,8.120,3.673,2.02528,-12.80118,-0.29694
107,3.567,0.371,9.608,3.169,-19.86396,-12.00311,-2.80465
108,3.600,0.057,10.510,2.368,-12.91932,-6.11954,-2.15492
109,3.633,0.166,10.564,1.940,5.67909,-0.01051,-1.76002
110,3.667,0.121,9.807,2.049,2.39683,-0.94970,0.49900
111,3.700,0.402,9.383,1.511,-6.96194,3.67370,-0.90414
112,3.733,0.876,9.587,1.276,-5.22918,6.28425,-1.29002
113,3.767,1.354,9.908,1.541,2.23860,3.41825,3.60996
114,3.800,1.310,9.723,1.515,2.21584,-2.86696,4.13517
115,3.833,0.751,9.300,1.472,-0.79381,-8.37352,3.45968
116,3.867,0.697,9.345,1.465,1.47447,-10.70290,6.60053
117,3.900,0.515,10.067,1.360,0.79701,-10.13258,6.50607
118,3.933,0.906,10.193,1.306,6.95493,-10.25933,5.60065
119,3.967,1.060,9.870,1.296,4.15130,-13.62737,4.77577
120,4.000,1.335,10.290,1.203,2.69144,-16.32223,4.74128
121,4.033,1.284,11.071,1.615,-0.15366,-19.15740,-2.16147
122,4.067,-0.197,10.982,1.716,-5.09718,-14.38487,-8.82006
123,4.100,-0.552,10.607,1.980,-3.57762,-0.77299,-5.26161
124,4.133,0.012,10.011,1.760,-2.31350,4.72799,0.35427
125,4.167,0.272,9.855,2.283,-2.46345,5.16965,2.30429
126,4.200,0.372,9.613,2.761,2.30494,2.55766,1.22606
127,4.233,0.160,8.544,3.283,9.18983,-2.29510,-7.57781
128,4.267,-0.769,8.417,3.509,5.18046,0.45383,-18.00463
129,4.300,-1.395,9.929,3.235,5.11214,5.98602,-12.16569
130,4.333,-0.665,10.611,2.370,0.00270,-0.95810,5.89126
131,4.367,-0.391,10.253,1.920,5.54147,-4.81289,5.45540
132,4.400,-0.376,10.234,1.755,10.66297,-9.17515,2.87567
133,4.433,-0.614,9.282,1.680,17.75515,-13.81366,-0.77947
134,4.467,-0.970,8.934,1.381,15.38411,-9.94968,-0.87800
135,4.500,-1.353,8.514,1.299,21.73719,-4.86752,0.64409
136,4.533,-1.002,7.839,0.890,6.99156,4.44489,-2.31809
137,4.567,0.197,6.100,-0.294,-2.49978,10.70152,-4.65678
138,4.600,-0.301,5.377,-0.926,-1.02053,1.26985,-9.11507
139,4.633,-1.250,6.573,-0.155,-23.20892,19.83068,-21.95239
140,4.667,-0.263,14.586,9.990,-52.56144,25.96255,2.82492
141,4.700,5.450,18.987,4.110,1.72205,-51.41053,18.13245
142,4.733,-5.077,14.006,6.266,-24.11097,-4.63132,-21.53178
143,4.767,-2.358,15.384,4.659,1.61015,20.47626,-3.91007
144,4.800,0.794,10.255,2.894,24.10335,33.07587,-2.98005
145,4.833,1.281,6.476,4.539,10.09440,19.55829,-11.58032
146,4.867,1.235,6.373,2.286,-8.70785,11.38469,-13.17136
147,4.900,0.864,6.578,2.928,3.11596,11.96772,-6.67801
148,4.933,0.848,6.570,3.495,15.11306,10.55746,2.07462
149,4.967,0.610,8.655,3.741,-0.71869,4.07070,9.44757
150,5.000,0.958,10.324,2.920,-13.53475,3.80159,10.41797
151,5.033,0.729,10.159,3.041,-0.80984,0.47882,7.24630
152,5.067,0.253,9.574,2.761,-4.57942,4.79122,3.64678
153,5.100,0.294,9.618,2.413,-8.97316,6.63761,2.06606
154,5.133,0.602,9.675,2.261,-4.28024,8.83798,4.66159
155,5.167,0.958,9.720,1.876,-1.35964,5.16728,3.65060
156,5.200,1.147,9.411,1.590,0.44603,-0.34370,2.82087
157,5.233,1.132,9.476,1.577,-2.82088,-3.97624,2.61871
158,5.267,0.686,9.649,1.639,-2.05784,-4.59884,3.68313
159,5.300,0.412,9.852,1.395,0.03307,-5.37613,4.60282
160,5.333,0.566,9.780,1.523,4.25500,-9.68148,5.57212
161,5.367,0.747,9.648,1.577,3.57425,-14.64360,4.89477
162,5.400,0.946,9.757,1.164,-0.29973,-16.08661,-1.72517
163,5.433,0.357,10.022,0.743,-5.45140,-12.04295,-4.86295
164,5.467,-0.017,11.359,1.421,-1.37800,-1.42910,-8.84795
165,5.500,-0.204,11.550,1.831,3.14334,5.56848,-12.53741
166,5.533,0.714,10.427,2.195,-2.56582,7.49657,-6.90900
167,5.567,0.672,10.001,1.659,-8.32201,3.71458,1.04506
168,5.600,0.402,10.426,2.101,-5.73939,2.73606,8.15766
169,5.633,-0.064,9.937,2.694,2.46274,6.38864,11.59540
170,5.667,0.454,8.442,4.244,4.15040,4.08371,7.28869
171,5.700,0.112,7.679,4.270,2.36497,0.00592,-7.94070
172,5.733,-0.709,9.166,3.292,2.71700,6.93710,-18.03747
173,5.767,-0.635,10.722,3.461,3.15082,5.03503,-6.27666
174,5.800,0.159,10.652,2.516,-1.32988,-3.18370,5.16245
175,5.833,-0.111,9.121,2.347,4.41345,-14.86884,0.31705
176,5.867,-0.436,9.151,1.908,5.86668,-15.37395,-6.67625
177,5.900,-1.017,9.618,0.703,12.37757,-12.51850,-5.11982
178,5.933,-1.888,9.268,-0.420,20.29693,-8.59844,-9.33103
179,5.967,-1.346,7.447,-0.628,8.65364,0.00701,-11.35784
180,6.000,-0.844,5.884,-1.545,0.35006,6.62645,-15.91539
181,6.033,-1.316,6.054,-1.235,-10.70117,7.00684,-25.50857
182,6.067,-1.991,6.935,1.357,-51.04174,72.06183,-40.47752
183,6.100,7.847,19.613,11.751,-3.19907,-36.12342,49.95676
184,6.133,4.763,13.082,4.955,-7.28295,-75.92059,20.47005
185,6.167,-6.797,9.446,10.557,-44.40835,10.20665,-33.38010
186,6.200,0.160,14.658,3.255,-6.11089,7.44962,-1.88444
187,6.233,1.964,8.643,2.513,18.55945,26.79738,14.24131
188,6.267,1.478,6.168,5.435,-4.05514,-0.34838,1.54784
189,6.300,2.509,6.373,2.461,2.67089,-3.48309,-11.30441
190,6.333,1.265,5.331,3.619,12.15742,-5.56332,-4.52018
191,6.367,1.023,6.420,3.457,-2.68935,-8.55626,-1.25924
192,6.400,0.557,9.766,3.841,-21.07996,-7.91333,-1.77470
193,6.433,0.581,11.949,2.357,-30.33335,-7.47247,4.30951
194,6.467,0.056,11.399,1.009,-2.61075,1.66099,4.29600
195,6.500,0.217,9.952,1.825,-0.37425,6.53080,-3.00051
196,6.533,0.940,9.551,1.727,-0.26754,7.01961,-4.77877
197,6.567,0.934,9.232,1.819,-1.80212,5.35376,-0.44003
198,6.600,0.855,9.021,1.510,0.95303,2.68252,4.73738
199,6.633,0.974,9.626,1.584,1.37977,-1.14125,8.92028
200,6.667,1.178,10.170,1.875,5.65997,-6.08592,11.04806
201,6.700,1.119,9.960,1.802,8.71667,-16.99005,11.47093
202,6.733,0.693,9.621,1.349,5.27252,-17.19552,8.09876
203,6.767,0.614,9.825,1.185,-1.47925,-11.89660,5.31945
204,6.800,0.896,10.322,1.103,7.44740,-11.11288,7.75776
205,6.833,1.298,10.537,1.587,10.17195,-13.95736,4.83422
206,6.867,0.945,11.052,1.731,3.47995,-12.70932,-4.99366
207,6.900,-0.118,10.662,2.017,-0.93844,0.39499,-4.23480
208,6.933,-0.376,10.705,2.202,-2.09532,11.67525,2.08904
209,6.967,-0.092,10.364,2.131,-0.47294,8.86868,9.06232
210,7.000,0.227,9.990,2.465,4.12065,8.11946,10.78823
211,7.033,0.381,9.109,3.553,2.14024,4.62190,4.85561
212,7.067,0.363,8.359,3.366,5.96313,4.77824,-7.60332
213,7.100,-0.825,8.723,3.841,7.27577,4.08894,-19.18998
214,7.133,-0.940,9.664,3.361,9.97201,3.41429,-15.28715
215,7.167,-0.668,10.575,2.979,7.98795,2.25550,-5.26102
216,7.200,-0.255,10.403,2.761,12.14565,-6.95169,4.66727
217,7.233,-0.562,9.209,1.811,13.83578,-15.91359,2.26865
218,7.267,-0.712,9.135,1.787,14.66530,-13.74882,-1.57867
219,7.300,-0.445,9.137,1.260,15.85634,-12.68758,-1.58524
220,7.333,-1.091,8.703,0.387,17.25551,-12.10101,-11.54202
221,7.367,-0.965,7.648,-0.989,3.60220,-6.31390,-20.50833
222,7.400,-0.499,6.164,-1.402,-8.38767,2.31970,-20.02176
223,7.433,-1.665,5.774,-0.739,-29.39848,11.10522,-25.84465
224,7.467,-2.216,6.457,2.059,-59.55570,57.18883,-22.97414
225,7.500,7.302,19.090,14.087,3.99748,-18.96882,61.56391
226,7.533,2.725,14.263,4.661,-19.50882,-37.54783,10.97308
227,7.567,-3.768,13.459,7.473,-34.61227,12.72116,-22.84355
228,7.600,-0.949,13.570,3.582,19.76062,36.37334,6.74357
229,7.633,1.993,8.895,2.895,5.26234,38.21288,3.53445
230,7.667,2.255,7.103,3.689,-9.08779,10.01339,-6.99880
231,7.700,2.619,6.659,2.244,-9.31554,0.85992,-9.66197
232,7.733,2.156,6.425,3.319,3.67208,-11.38786,-1.21973
233,7.767,0.878,7.534,3.639,6.53324,-17.08348,4.80756
234,7.800,-0.049,9.487,3.491,-12.97827,-14.54561,0.70853
235,7.833,0.067,10.471,2.177,-19.39795,-10.08034,0.35739
236,7.867,0.163,10.433,1.948,-8.05984,-0.91463,2.55416
237,7.900,0.172,10.081,1.704,-4.82109,4.78047,4.90331
238,7.933,0.557,9.573,1.619,-3.81717,8.95411,6.02334
239,7.967,0.936,9.114,1.734,-0.32197,6.88062,4.15391
240,8.000,1.343,9.318,1.457,1.77344,-0.80156,4.18534
241,8.033,1.152,9.817,1.211,0.51269,-7.64842,4.20291
242,8.067,1.002,9.792,1.191,0.75791,-12.01210,1.98518
243,8.100,0.958,9.755,1.128,0.77163,-16.24312,2.75234
244,8.133,0.485,9.882,0.938,-2.32392,-16.55993,1.34413
245,8.167,0.330,10.388,0.905,2.96479,-13.87075,1.75821
246,8.200,0.543,10.371,1.037,12.84179,-13.70164,1.86702
247,8.233,0.838,10.311,1.261,15.80431,-17.96573,1.17556
248,8.267,0.841,11.178,1.600,8.59575,-12.58106,-8.09234
249,8.300,-0.252,10.921,1.504,4.00881,-6.68940,-11.38614
250,8.333,-0.456,10.558,2.284,2.60143,6.82361,-5.99146
251,8.367,0.216,10.759,2.026,-2.09717,9.37261,5.79519
252,8.400,0.467,10.409,2.115,-2.30359,4.80663,13.98567
253,8.433,0.200,9.892,3.322,8.84688,8.73953,9.05344
254,8.467,0.156,7.989,4.285,14.34661,3.34423,-1.09267
255,8.500,-0.308,7.436,4.223,10.55468,7.21708,-15.70423
256,8.533,-1.661,8.887,3.702,7.91246,17.94284,-12.74435
257,8.567,-1.931,9.944,2.805,-7.60494,19.41043,12.09423
258,8.600,-0.091,9.845,2.131,-1.40137,8.21625,16.58791
259,8.633,-0.509,9.065,1.149,11.62350,3.64028,3.37059
260,8.667,-0.691,9.068,0.961,13.93993,6.74375,-3.69536
261,8.700,-0.918,8.521,0.616,11.59317,10.74525,-7.21478
262,8.733,-0.494,6.972,0.031,-5.45346,14.36916,-14.39197
263,8.767,-0.176,5.813,-1.069,-16.85149,14.42833,-18.76321
264,8.800,-0.265,6.835,-0.972,-38.63787,9.40652,-24.74698
265,8.833,-0.110,9.419,1.422,-46.55521,19.99360,-32.66298
266,8.867,3.939,18.557,9.443,-1.22179,-30.32779,22.44560
267,8.900,3.208,14.073,2.856,-13.14958,-50.85050,-4.05235
268,8.933,-4.510,14.677,7.400,-25.30640,-18.13297,-25.09199
269,8.967,-2.351,14.161,4.652,14.69949,14.03011,-6.98516
270,9.000,1.083,9.202,3.563,22.25635,14.72377,-6.65309
271,9.033,1.634,7.323,4.101,1.41171,1.94027,-8.04491
272,9.067,1.159,7.320,3.046,2.35466,0.98606,-9.73396
273,9.100,0.616,6.977,3.440,13.07309,2.68973,-5.21558
274,9.133,0.781,6.985,3.625,12.99978,7.62169,-3.38471
275,9.167,0.660,8.656,3.213,-5.50866,4.81106,2.30352
276,9.200,0.657,9.989,2.256,-7.75843,7.12865,8.95202
277,9.233,0.832,9.770,2.323,4.75211,7.48750,14.72395
278,9.267,1.163,9.126,2.352,-0.26141,5.68230,9.91283
279,9.300,0.992,9.623,2.065,-4.58586,7.01562,5.50063
280,9.333,0.624,9.612,1.792,-3.34290,8.03134,7.63783
281,9.367,1.042,9.316,1.897,-0.12963,5.10867,10.42794
282,9.400,1.387,9.368,2.120,1.22773,0.23009,10.24874
283,9.433,1.458,9.181,1.734,-2.68155,-5.07957,5.37918
284,9.467,0.843,9.075,1.617,-10.79834,-8.31527,3.92722
285,9.500,0.737,9.730,1.634,-14.00080,-9.28643,4.38451
286,9.533,0.840,10.164,1.459,-5.88019,-11.27691,3.25032
287,9.567,0.709,10.363,1.130,-0.93744,-12.31691,2.05156
288,9.600,0.908,10.828,1.253,3.23284,-13.28582,2.87338
289,9.633,1.308,11.230,1.436,8.43203,-17.08592,2.07425
290,9.667,0.756,11.713,1.739,-1.85584,-15.28806,-9.26485
291,9.700,-0.078,11.271,1.166,-5.37096,-8.26277,-10.72136
292,9.733,-0.002,10.417,0.860,-0.51599,6.29991,-1.02974
293,9.767,0.989,9.815,1.577,6.24708,5.66668,6.89537
294,9.800,0.907,9.444,3.753,5.81528,1.84882,9.52565
295,9.833,-0.030,8.799,5.551,25.06816,0.28136,-4.26690
296,9.867,-0.861,7.936,4.825,10.77190,2.76494,-17.80427
297,9.900,-1.268,9.093,3.791,-4.87515,15.05188,-9.04342
298,9.933,-0.549,11.610,2.561,-4.34809,10.02009,12.59960
299,9.967,-0.424,10.141,1.603,21.48116,-6.51999,5.05827
300,10.000,-0.514,8.977,1.687,17.89689,-10.98463,-6.54954
301,10.033,-0.684,8.364,1.193,22.08321,-13.89332,-4.51754
302,10.067,-1.080,7.604,0.455,0.09816,-13.62479,-5.49584
303,10.100,-1.022,6.480,-1.262,-17.89768,-1.94498,-15.91986
304,10.133,-0.914,5.845,-1.145,-37.15879,14.89770,-23.50671
305,10.167,-0.853,5.581,-1.001,-51.00987,13.58953,-28.34197
306,10.200,-1.971,7.851,3.272,-59.51903,46.46853,-20.34266
307,10.233,9.138,19.613,15.071,6.49903,-42.48840,73.12877
308,10.267,2.554,13.766,1.851,-12.07781,-58.76332,-11.43620
309,10.300,-5.290,12.009,7.397,-56.73791,-3.46183,-43.77865
310,10.333,-1.532,15.804,2.478,4.06636,19.75012,8.86757
311,10.367,2.055,10.184,1.705,20.47233,14.40129,16.41246
312,10.400,2.517,7.482,3.985,5.43663,-2.51078,-5.61191
313,10.433,2.081,7.111,1.402,4.00002,-16.70238,-17.45896
314,10.467,1.181,5.928,2.931,4.40584,-11.47498,-10.24253
315,10.500,0.982,7.206,3.188,5.52576,-13.34303,0.39893
316,10.533,0.438,9.688,2.567,-7.27547,-8.19121,2.23445
317,10.567,-0.068,10.903,1.755,-5.96837,0.30590,1.83035
318,10.600,0.085,10.069,2.030,6.29445,10.41061,0.85533
319,10.633,0.557,9.280,1.899,0.13122,12.03553,2.20105
320,10.667,0.665,9.327,1.357,-2.64265,17.10281,6.09572
321,10.700,1.037,9.605,1.042,0.69931,17.09708,9.19837
322,10.733,1.281,9.691,1.247,2.52797,12.06558,10.56095
323,10.767,1.600,9.811,1.429,0.83837,4.31103,9.32137
324,10.800,1.584,9.910,1.329,2.99460,-3.18004,6.97631
325,10.833,0.831,9.811,1.343,4.56748,-6.33146,4.38737
326,10.867,0.524,9.904,1.309,6.59496,-6.51855,1.51370
327,10.900,0.674,10.234,1.185,10.79562,-7.08945,2.26213
328,10.933,0.684,10.565,1.315,16.38205,-9.04466,4.31165
329,10.967,1.271,10.184,1.058,13.55786,-12.40722,2.44773
330,11.000,0.869,10.355,1.709,1.39829,-5.87917,-6.57154
331,11.033,-0.101,11.098,1.490,2.11444,1.29745,-7.45598
332,11.067,0.191,10.956,1.758,5.46799,12.71912,0.54259
333,11.100,0.534,10.654,1.743,2.96627,12.19617,9.15506
334,11.133,0.906,10.181,2.097,12.93881,5.04440,10.63988
335,11.167,1.178,9.813,3.706,11.98227,-0.98978,4.08558
336,11.200,0.790,8.598,4.420,15.43395,-9.82868,-3.73067
337,11.233,-0.063,7.848,4.436,27.37609,-10.87046,-18.55637
338,11.267,-1.471,8.969,4.019,23.44048,2.69376,-23.03008
339,11.300,-1.666,10.108,3.701,-1.06010,4.12995,-2.40010
340,11.333,-0.084,10.170,2.794,7.49246,-3.81664,12.85530
341,11.367,0.053,8.799,1.834,9.34893,-11.97054,4.68292
342,11.400,-0.219,8.653,1.083,21.38405,-12.77192,-7.61769
343,11.433,-0.990,8.340,0.609,12.45119,-11.96360,-11.75675
344,11.467,-0.950,6.405,-0.510,-2.95066,1.44384,-15.21913
345,11.500,-1.810,4.805,-1.510,-6.63188,35.01262,-17.80574
346,11.533,-2.101,4.973,-1.269,-26.95718,33.04814,-15.82853
347,11.567,-0.550,10.795,7.292,-104.71351,38.18494,0.26444
348,11.600,7.826,19.012,5.105,-9.97000,-43.63022,45.22254
349,11.633,-3.881,14.777,3.687,-7.36181,-12.16289,-27.90828
350,11.667,-2.590,12.744,5.583,-39.52144,12.28382,-13.51658
351,11.700,-0.398,10.682,2.932,16.15850,45.78438,3.28543
352,11.733,1.202,7.036,3.709,12.71598,24.01640,1.40928
353,11.767,2.413,6.268,3.299,-7.90215,12.73986,-12.02537
354,11.800,1.877,5.254,2.997,3.60637,4.28502,-8.59534
355,11.833,1.504,6.300,4.518,8.99543,1.55315,-3.70056
356,11.867,0.521,9.128,4.280,-4.35164,-3.48494,-1.23544
357,11.900,0.677,9.862,2.448,-15.21550,-3.02394,0.30178
358,11.933,1.168,9.855,2.548,-10.87438,2.65190,3.33926
359,11.967,0.789,10.003,1.909,-9.64388,5.55803,6.68911
360,12.000,0.842,10.175,2.273,-5.82009,5.02752,7.93833
361,12.033,1.005,9.830,2.210,-6.36438,4.14020,8.60485
362,12.067,1.613,9.499,1.729,-1.11465,1.83016,5.60427
363,12.100,1.626,9.380,2.081,0.07364,-2.43401,3.32082
364,12.133,1.111,9.209,1.733,-2.86606,-4.60594,2.87810
365,12.167,0.696,9.024,1.629,-7.78757,-6.62441,5.37817
366,12.200,0.995,9.764,1.287,-11.20513,-5.46244,6.66475
367,12.233,0.612,10.404,1.211,-3.37485,-6.75623,7.24315
368,12.267,0.909,10.454,1.274,5.62672,-5.04408,4.40883
369,12.300,1.153,10.483,1.099,9.46776,-6.34677,3.61475
370,12.333,0.840,10.605,1.463,11.25273,-7.11900,1.63751
371,12.367,0.718,11.183,1.745,11.08322,-4.08383,-2.31840
372,12.400,0.016,11.683,1.281,6.55669,-0.10802,-7.36634
373,12.433,0.122,11.592,0.813,12.72738,10.31223,-7.13092
374,12.467,0.962,11.110,1.294,23.70978,8.30464,0.47153
375,12.500,1.594,9.412,2.917,23.12903,-4.02623,9.23378
376,12.533,1.166,8.269,3.886,8.28702,-12.64093,5.12412
377,12.567,-0.289,7.839,4.722,2.54778,-8.79424,-10.43392
378,12.600,-1.289,8.076,3.962,7.91889,5.75284,-23.53388
379,12.633,-1.463,9.457,4.037,3.65298,7.31909,-13.04563
380,12.667,-0.486,10.494,2.808,7.79638,9.22122,7.61968
381,12.700,0.103,10.476,2.486,21.66154,-4.29343,11.56693
382,12.733,-0.177,9.678,2.075,24.15493,-13.20965,1.57004
383,12.767,-0.038,9.148,1.679,24.16195,-18.50828,-2.89771
384,12.800,-0.893,7.810,1.308,22.72700,-21.45559,-3.55020
385,12.833,-1.135,6.873,-0.038,-0.76316,-12.44839,-11.86949
386,12.867,-1.152,5.263,-1.501,-4.96989,9.87128,-19.04720
387,12.900,-1.761,4.238,-1.230,-17.57120,33.41144,-24.81987
388,12.933,-2.684,5.111,3.250,-69.57599,76.55849,-30.85988
389,12.967,17.937,19.613,15.047,-36.23891,-36.91028,83.63806
390,13.000,-0.065,13.635,2.206,12.72588,-34.78400,-31.87872
391,13.033,-6.534,8.699,9.669,-53.18469,19.46568,-31.60598
392,13.067,1.283,15.773,2.357,-15.34033,28.38459,6.59877
393,13.100,1.132,9.088,2.746,17.79851,29.33914,23.91170
394,13.133,2.947,6.184,5.537,-19.93023,8.70770,-2.96583
395,13.167,2.223,6.215,2.416,-2.51544,-4.25648,-12.99534
396,13.200,1.466,5.629,4.003,-6.80890,-1.81400,-8.44404
397,13.233,0.759,7.598,3.777,-5.88048,-6.67308,-6.13331
398,13.267,0.467,9.794,3.319,-31.60130,-9.36933,-3.51513
399,13.300,1.331,10.853,1.951,-10.77858,5.64969,8.02549
400,13.333,1.140,9.251,2.855,-2.02280,-2.60738,7.90795
401,13.367,1.147,9.140,2.815,-20.52722,2.03971,-3.66864
402,13.400,0.699,9.858,2.209,-20.20803,3.15739,-4.17061
403,13.433,0.626,9.766,1.815,-11.17779,4.77430,1.90542
404,13.467,1.433,9.786,1.898,-7.31654,1.74111,7.03968
405,13.500,1.672,9.824,1.743,-4.87871,-3.21814,5.05580
406,13.533,1.274,9.572,1.647,-6.75934,-8.19514,3.63989
407,13.567,1.162,9.785,1.747,-7.28618,-9.68754,4.66385
408,13.600,1.067,10.192,1.642,-4.22584,-11.97284,6.75282
409,13.633,0.940,9.883,1.432,0.42381,-11.85492,6.58122
410,13.667,1.027,9.954,1.294,2.84245,-13.02925,6.92064
411,13.700,1.146,10.020,1.541,3.78923,-15.44645,7.21858
412,13.733,1.009,9.786,0.975,3.38170,-18.21670,5.56188
413,13.767,0.972,9.548,0.394,3.07905,-21.57544,6.74642
414,13.800,1.139,9.872,0.612,-3.03445,-18.08612,3.28208
415,13.833,0.215,11.220,1.158,-11.13657,-8.95142,-2.33038
416,13.867,-0.634,11.731,2.298,-2.80995,9.74881,-7.55936
417,13.900,-0.477,10.916,2.491,2.49920,17.18889,-7.14176
418,13.933,0.683,9.026,2.222,-2.84027,13.26595,3.72099
419,13.967,1.431,9.669,2.917,-3.69313,-0.81554,6.66847
420,14.000,0.962,9.799,3.788,8.89963,-6.05536,-5.32195
421,14.033,-0.825,9.411,3.385,12.65966,-7.03519,-19.24434
422,14.067,-1.375,9.527,2.952,6.32127,-1.47718,-9.61377
423,14.100,-1.003,9.885,2.519,2.10407,3.24671,5.79654
424,14.133,-0.110,10.493,2.201,4.16537,-7.17372,15.71262
425,14.167,0.123,10.118,1.621,13.84997,-15.55108,10.09182
426,14.200,0.052,9.490,1.797,15.69114,-15.49639,-3.27351
427,14.233,-0.463,9.124,1.770,17.29266,-19.08603,-5.51266
428,14.267,-1.041,8.516,1.447,16.07827,-10.66387,-6.63071
429,14.300,-1.240,7.880,0.570,7.41908,-5.05555,-10.79624
430,14.333,-0.391,6.905,-0.409,-4.17632,3.52888,-15.19011
431,14.367,-0.297,6.010,-0.746,-15.14494,6.76639,-23.46295
432,14.400,-0.835,6.186,-0.556,-38.15393,15.34204,-25.85611
433,14.433,-2.099,9.126,3.332,-40.22780,38.71861,-17.49887
434,14.467,7.491,19.528,9.288,2.46763,-25.97955,45.56538
435,14.500,2.419,15.137,2.193,3.02830,-31.32537,1.99886
436,14.533,-4.301,12.857,5.962,-23.99107,8.33016,-22.21790
437,14.567,-1.903,13.685,3.205,8.49923,41.85783,3.72071
438,14.600,1.618,9.137,3.028,13.89558,31.52788,12.58476
439,14.633,2.476,7.248,3.754,4.50384,6.29089,-0.42951
440,14.667,2.870,6.985,2.686,1.19566,-3.34648,-10.91869
441,14.700,1.136,7.162,3.951,4.56418,-8.23148,-6.37088
442,14.733,0.665,7.856,3.803,-0.93088,-5.35364,-1.31956
443,14.767,0.097,9.790,3.565,-7.29346,-0.93467,0.78676
444,14.800,0.186,10.402,2.818,-4.83348,2.66658,3.07866
445,14.833,0.514,10.246,3.065,-3.17237,9.93604,1.45741
