frame_number,sync_timestamp,accel_x,accel_y,accel_z,gyro_x,gyro_y,gyro_z
0,0.000,0.244,9.661,2.064,-0.93893,0.57252,-0.54198
1,0.033,0.175,9.701,2.109,-0.36831,1.15090,-0.22694
2,0.067,0.213,9.670,2.102,-0.41191,1.83121,-0.60543
3,0.100,0.251,9.727,2.080,-1.36567,2.18185,-0.46688
4,0.133,0.368,9.786,2.231,-1.28104,1.69528,-0.60710
5,0.167,0.304,9.890,2.075,-0.80216,0.76145,-0.88645
6,0.200,0.260,9.849,2.048,-0.56517,0.40511,-0.62595
7,0.233,0.271,9.772,2.129,-0.85716,0.14451,-0.78301
8,0.267,0.271,9.663,2.048,-1.08140,-0.31333,-0.67800
9,0.300,0.219,9.726,2.151,-1.68671,0.39643,-0.88436
10,0.333,0.327,9.817,2.128,-0.83324,-0.23471,-0.70304
11,0.367,0.263,9.784,2.121,-0.18292,-0.51448,-0.85688
12,0.400,0.294,9.697,2.219,-0.43669,-0.66577,-1.84198
13,0.433,0.479,9.714,2.142,0.63771,-1.22695,-1.81035
14,0.467,0.378,9.804,2.156,2.00302,-0.32733,-1.71631
15,0.500,0.221,9.952,2.068,0.80871,-0.69738,0.78059
16,0.533,0.388,9.796,1.768,-2.63619,-0.55345,2.95086
17,0.567,0.630,9.599,1.747,-8.12621,-2.37259,2.27837
18,0.600,0.616,9.881,1.871,-9.60375,-4.52139,1.82821
19,0.633,0.434,9.984,1.847,-6.90496,-5.61026,2.61552
20,0.667,0.076,9.918,1.784,-9.17355,-4.27037,1.69426
21,0.700,0.244,9.897,1.802,-5.37973,-1.37781,1.93324
22,0.733,0.225,9.961,1.834,1.20705,2.92014,3.73340
23,0.767,0.334,9.984,1.948,3.37809,2.62266,3.18545
24,0.800,0.440,9.696,1.953,4.39327,-1.09799,2.69656
25,0.833,0.207,9.551,1.952,6.77368,-4.73640,1.03983
26,0.867,0.018,9.396,1.623,6.93677,-6.06263,-2.48292
27,0.900,-0.238,9.442,1.202,4.02700,-2.69432,-6.19832
28,0.933,-0.263,9.706,1.040,0.53094,-0.49233,-6.36392
29,0.967,-0.679,10.745,1.166,-0.98140,3.03950,-1.81480
30,1.000,0.088,10.493,1.239,4.97092,-2.52225,0.69669
31,1.033,0.134,9.929,1.283,8.17106,-4.10634,2.38655
32,1.067,-0.048,9.774,1.253,7.05231,-7.12842,2.99181
33,1.100,-0.020,9.579,1.444,6.27359,-8.26181,2.35754
34,1.133,-0.261,9.706,1.175,0.90444,-6.88172,0.75494
35,1.167,-0.525,10.049,1.104,1.74308,-4.56329,-0.68561
36,1.200,-0.471,10.004,0.833,0.46528,-0.31052,0.47456
37,1.233,-0.904,10.186,0.963,2.15668,5.97466,-1.64797
38,1.267,-0.819,9.888,0.836,-0.93783,8.89715,-2.65492
39,1.300,-0.369,9.390,0.527,-5.37139,8.68079,-2.52814
40,1.333,0.002,9.873,0.868,-4.49222,18.23941,-6.90224
41,1.367,0.780,12.226,2.820,6.77831,11.67699,-9.18782
42,1.400,1.448,11.741,3.804,31.33535,-3.26733,-17.95189
43,1.433,-0.374,9.321,4.651,29.90410,7.12591,-24.74087
44,1.467,-0.461,7.643,3.905,26.11065,16.28431,-10.59961
45,1.500,-0.563,7.805,3.904,27.77541,15.22595,13.13036
46,1.533,1.303,11.530,3.601,8.54779,15.02028,24.85897
47,1.567,2.423,12.171,1.565,12.93360,8.07288,-4.81547
48,1.600,1.922,8.302,3.145,20.91377,16.01580,-4.26983
49,1.633,1.173,7.296,1.627,12.13783,18.70210,10.01612
50,1.667,1.777,8.236,1.115,6.70543,8.71618,19.36353
51,1.700,3.175,6.553,0.064,-27.42287,-13.18237,20.45080
52,1.733,3.682,4.632,-0.767,-30.16511,-41.47518,25.19252
53,1.767,2.109,6.230,-1.712,-25.74980,-47.04876,29.09068
54,1.800,-1.485,15.974,8.626,-79.33959,9.96512,1.98252
55,1.833,-4.734,17.107,0.317,-26.10131,-10.05029,-35.29935
56,1.867,3.359,10.582,4.194,36.18294,51.24795,29.69137
57,1.900,1.814,12.550,6.879,-35.21943,14.20643,8.76568
58,1.933,-0.142,10.186,3.199,35.58036,-26.61935,0.24861
59,1.967,-1.630,6.140,4.818,2.67787,-2.40138,0.17211
60,2.000,-1.285,5.962,2.879,-42.37954,8.76336,6.87479
61,2.033,-0.113,7.799,2.864,-10.10246,5.39962,4.86188
62,2.067,0.107,8.833,3.696,-0.89314,-2.97938,4.32113
63,2.100,-0.295,9.093,3.313,-14.32708,-4.95285,-4.04669
64,2.133,-0.390,9.199,2.632,-17.67452,-9.67786,-9.44897
65,2.167,-0.735,9.600,2.107,-16.54430,-11.53045,-8.94408
66,2.200,-1.235,9.955,2.017,-14.48785,-8.37485,-9.24421
67,2.233,-1.481,9.651,1.937,-19.54470,-0.27312,-4.14950
68,2.267,-0.520,9.734,1.556,-19.91227,3.12567,-1.75881
69,2.300,-0.276,9.924,1.388,-15.22808,-0.62671,-1.10611
70,2.333,-0.364,9.949,1.284,-6.13527,-1.75917,-3.17579
71,2.367,-0.458,9.862,1.497,0.03210,-1.47657,-6.15274
72,2.400,-0.448,9.595,1.387,0.28317,0.68666,-10.35067
73,2.433,-0.814,9.372,0.865,-1.30034,3.59008,-9.11712
74,2.467,-0.680,9.556,0.888,-4.40572,6.08335,-6.92374
75,2.500,-0.645,9.890,0.627,-7.53913,4.50004,-9.24026
76,2.533,-0.439,10.157,0.356,-3.40922,7.98432,-10.20170
77,2.567,-0.353,10.253,-0.067,3.76240,8.24196,-6.64007
78,2.600,-0.572,10.313,0.251,8.38040,9.35470,-4.27840
79,2.633,-0.410,9.803,0.084,10.60601,7.19569,-2.85779
80,2.667,-0.365,9.704,0.556,1.57518,4.57464,-3.25760
81,2.700,0.713,10.531,0.952,-0.70080,3.37042,-3.03645
82,2.733,0.147,11.066,2.553,9.43468,-3.37959,-5.46329
83,2.767,0.246,10.249,3.754,12.62665,-8.72712,-5.77216
84,2.800,0.458,8.689,4.657,16.36462,-2.24351,-1.98451
85,2.833,0.813,8.470,3.287,9.64856,-7.51684,9.16328
86,2.867,0.946,10.537,2.963,3.87401,-14.81112,21.53397
87,2.900,1.626,12.022,2.800,6.64593,-14.55696,0.44807
88,2.933,1.378,10.711,2.124,12.99640,-12.39573,-16.41179
89,2.967,0.676,9.664,1.408,17.32466,-2.96561,-8.86973
90,3.000,-0.094,9.965,1.352,26.53288,7.58431,-1.90301
91,3.033,0.484,9.442,1.335,34.86626,9.93876,6.18789
92,3.067,2.014,7.618,1.253,13.99826,-4.15022,10.97407
93,3.100,2.325,5.701,-0.158,-3.91942,-5.39802,11.12540
94,3.133,1.763,5.161,-0.249,-16.29596,-21.34195,15.61574
95,3.167,1.164,4.988,-1.012,-31.94696,-24.20538,21.89166
96,3.200,0.527,6.820,3.720,-50.11424,-16.93808,20.87595
97,3.233,-14.404,19.613,11.187,-78.00237,22.18916,-100.32083
98,3.267,2.940,10.067,0.660,35.24633,44.43233,21.96357
99,3.300,4.650,9.977,7.930,-23.89794,0.74214,29.28064
100,3.333,-0.154,15.158,2.089,9.28486,-33.80515,-9.08768
101,3.367,-1.389,9.574,0.938,-6.07457,-22.86004,-10.19907
102,3.400,-3.505,6.645,3.282,-23.36683,19.76963,11.83727
103,3.433,-1.796,5.241,3.091,-11.81376,19.49405,17.96104
104,3.467,0.211,5.786,3.413,4.41288,19.42628,14.46412
105,3.500,0.163,7.691,3.531,-2.99695,16.10976,9.13669
106,3.533,-0.160,10.366,2.886,-40.65057,6.74729,-3.38248
107,3.567,0.104,11.091,1.157,-24.82331,-1.33358,-8.38526
108,3.600,-0.389,10.038,1.748,-16.12076,-7.51776,-6.18368
109,3.633,-0.959,10.370,1.573,-18.98746,-5.76731,-6.79390
110,3.667,-0.456,10.230,0.792,-6.29790,-2.39213,-7.33747
111,3.700,-0.084,9.322,1.389,-1.88434,-7.45263,-4.00332
112,3.733,-0.638,9.985,1.209,1.32344,-6.17755,-6.11265
113,3.767,-0.604,9.771,1.752,1.72873,-5.18107,-10.51704
114,3.800,-0.958,9.570,1.301,1.25371,-5.47200,-4.01330
115,3.833,-0.504,9.897,1.187,-1.34125,-1.47510,-7.95460
116,3.867,-0.594,10.260,1.122,3.05277,-3.90542,-11.50323
117,3.900,-0.500,10.327,1.049,6.44802,-5.54359,-10.04273
118,3.933,-0.443,9.891,0.848,6.09936,-1.83167,-8.15734
119,3.967,-0.537,9.523,0.363,5.76164,2.04957,-6.33273
120,4.000,-0.677,9.568,0.381,3.24818,5.25898,-5.15213
121,4.033,-0.446,9.369,0.234,9.39339,7.73631,-8.47319
122,4.067,-0.476,9.296,0.106,7.50915,8.80120,-8.50244
123,4.100,0.153,10.269,0.531,-6.68618,0.68150,-2.22220
124,4.133,1.166,11.022,1.099,-4.60750,-8.52443,3.98394
125,4.167,0.821,11.894,2.285,4.68114,-18.01246,5.69860
126,4.200,-0.568,10.189,2.698,11.23656,-8.94203,-2.66254
127,4.233,-1.782,8.875,3.487,4.09385,8.76696,-4.78763
128,4.267,-0.574,9.243,3.278,20.81773,13.50465,17.91412
129,4.300,1.397,10.477,3.397,22.93663,2.24897,29.00171
130,4.333,2.164,10.185,2.861,9.37238,-4.53461,7.97679
131,4.367,1.811,10.372,2.047,8.20796,-2.64883,-8.86367
132,4.400,0.474,10.435,1.350,9.54715,3.61096,-9.92626
133,4.433,-0.145,9.160,1.451,20.61902,8.95728,-1.03012
134,4.467,0.166,9.192,1.177,21.55880,12.16531,4.78080
135,4.500,1.075,8.931,0.613,25.73278,11.57167,7.81525
136,4.533,1.386,8.687,0.072,15.49850,7.58996,8.67200
137,4.567,1.153,7.092,-1.354,6.33320,-6.35629,19.52197
138,4.600,0.490,6.841,-0.697,-8.75080,-0.53289,21.29277
139,4.633,0.256,7.437,-1.208,-33.05309,8.95932,21.51473
140,4.667,0.908,9.677,3.591,-54.08541,10.05325,12.19260
141,4.700,-6.344,19.221,7.639,-42.89170,27.92753,-52.37681
142,4.733,3.428,10.185,2.753,14.87374,12.63305,-3.68579
143,4.767,3.858,11.398,7.336,-10.60081,-29.07059,11.53570
144,4.800,-2.381,13.868,5.605,2.81980,-50.18787,-6.95849
145,4.833,-3.694,8.858,4.557,13.62560,-20.81953,-11.24213
146,4.867,-3.010,7.910,4.666,-17.30927,5.51378,11.93841
147,4.900,-0.110,7.914,3.412,-6.51839,-2.66221,6.03352
148,4.933,-0.523,6.658,3.230,7.32741,-5.66285,4.29651
149,4.967,-0.884,7.109,3.944,-13.95976,-1.26739,2.48988
150,5.000,-1.288,8.765,2.652,-22.78885,5.16318,-4.65449
151,5.033,-1.390,9.663,1.882,-21.39943,4.10473,-4.31093
152,5.067,-0.894,9.777,2.135,-14.05155,2.56017,1.59274
153,5.100,-0.667,10.168,1.792,-14.70358,-0.43539,4.67235
154,5.133,-0.526,10.160,1.563,-7.05465,-3.14822,4.56274
155,5.167,-0.029,10.022,1.557,-2.70458,-5.73396,-1.23271
156,5.200,-0.437,9.733,1.221,-1.19329,-13.77217,-8.16663
157,5.233,-0.890,9.476,1.511,1.86405,-13.95188,-10.88570
158,5.267,-1.257,9.417,1.482,-0.79487,-8.54596,-12.16210
159,5.300,-1.330,9.182,1.208,-2.32032,-1.36328,-12.22387
160,5.333,-0.971,9.067,1.205,-5.13951,4.18222,-10.18589
161,5.367,-0.414,9.225,1.178,-3.61601,1.57560,-10.08435
162,5.400,-0.463,9.609,0.797,0.92880,-0.81962,-10.46213
163,5.433,-0.321,9.915,0.926,2.88906,-3.31908,-11.99595
164,5.467,-0.281,9.964,1.208,3.54552,-5.36292,-10.90655
165,5.500,-0.538,10.327,0.827,4.57078,-4.29902,-9.47313
166,5.533,-0.887,10.197,0.706,7.35822,-2.21081,-7.36107
167,5.567,-0.510,10.378,0.191,6.77378,-0.22291,-4.94844
168,5.600,-0.576,10.566,0.124,7.95709,4.51692,-6.53033
169,5.633,-0.118,11.436,0.550,0.46217,1.47669,-2.59529
170,5.667,0.375,11.124,1.105,5.48407,-3.94032,-1.02026
171,5.700,0.288,10.425,1.750,6.05443,-11.93999,-4.84236
172,5.733,-0.284,9.613,2.451,8.40535,-8.92805,-12.39047
173,5.767,-0.238,9.029,3.564,17.27284,3.08936,-9.44104
174,5.800,0.014,8.713,3.864,21.98772,6.21352,8.09428
175,5.833,0.270,9.296,4.014,19.35368,4.58235,21.28993
176,5.867,1.261,10.311,3.056,9.76158,-5.46405,14.08770
177,5.900,1.376,10.543,2.912,14.41796,-3.26928,-7.58596
178,5.933,0.703,10.175,1.983,10.82398,2.84588,-14.19524
179,5.967,0.176,9.226,2.013,20.26662,11.89956,-1.56784
180,6.000,0.175,9.182,2.123,22.62364,17.03762,6.04104
181,6.033,0.983,9.380,1.640,28.33042,14.15779,10.90401
182,6.067,1.931,8.319,0.792,20.98171,-0.37216,13.91314
183,6.100,2.062,6.664,-0.120,0.76364,-6.73204,18.76979
184,6.133,1.767,5.277,0.041,-20.94369,-17.66025,15.89141
185,6.167,1.290,5.820,-0.334,-45.84904,-14.52628,13.32644
186,6.200,-4.607,16.143,13.190,-46.66510,39.69575,-23.23139
187,6.233,-4.293,16.126,-0.730,-18.10688,14.39768,-17.30278
188,6.267,2.662,9.942,7.893,-16.43423,13.75181,24.70849
189,6.300,1.375,13.994,5.600,-21.65023,-14.48245,-8.53201
190,6.333,-1.171,10.303,4.268,15.65002,-16.19066,-9.48030
191,6.367,-1.981,7.548,4.097,-24.78047,-2.16477,2.55119
192,6.400,-2.236,7.319,2.751,-28.97541,9.34801,10.29784
193,6.433,-1.324,7.296,3.083,-9.08909,14.79305,13.38819
194,6.467,-0.189,7.910,3.508,-6.02371,11.95766,11.95861
195,6.500,0.426,8.689,3.277,-19.79193,4.29906,2.08283
196,6.533,0.247,9.249,2.307,-19.04551,-3.70164,-4.95163
197,6.567,-0.316,10.252,1.983,-11.06691,-10.73153,-4.75937
198,6.600,-0.792,10.198,2.115,-6.82425,-14.95210,-5.34944
199,6.633,-1.189,9.883,1.726,-7.30593,-9.48446,-6.85948
200,6.667,-1.143,9.552,1.322,-11.26070,-5.45011,-5.56259
201,6.700,-0.596,9.664,1.010,-8.84470,-3.38636,-5.78387
202,6.733,-0.388,9.537,1.241,-3.44348,-3.54656,-10.14052
203,6.767,-0.669,9.394,1.429,-3.41207,-4.62137,-12.14254
204,6.800,-0.883,9.457,1.228,-5.48058,-2.50164,-11.01851
205,6.833,-0.657,9.695,1.022,-3.50184,-0.81801,-10.18642
206,6.867,-0.115,9.756,1.156,1.66649,-1.68833,-8.71498
207,6.900,-0.186,9.728,0.944,3.60938,-7.56647,-8.75204
208,6.933,-0.458,9.780,0.869,2.70289,-9.18358,-9.12476
209,6.967,-0.651,9.836,0.492,2.91278,-7.11765,-8.29356
210,7.000,-0.837,9.921,0.042,4.85234,-0.68152,-6.98605
211,7.033,-0.424,10.573,0.030,2.25193,2.74418,-3.66316
212,7.067,0.209,10.761,0.143,-4.80609,-3.48339,0.79651
213,7.100,0.682,10.837,0.844,-5.56909,-12.32510,1.19136
214,7.133,0.152,10.188,1.360,-2.81231,-14.88551,0.70022
215,7.167,-0.800,9.984,1.892,2.32235,-11.24615,-3.90450
216,7.200,-0.930,10.110,3.766,6.00636,6.85415,-10.68957
217,7.233,-0.111,9.477,4.204,7.43773,12.63526,4.90239
218,7.267,0.335,9.299,3.181,9.44087,8.49216,18.63297
219,7.300,1.597,10.598,2.894,-5.24946,3.68767,5.51526
220,7.333,1.316,11.273,2.251,0.70817,1.10452,-8.33408
221,7.367,0.541,10.902,1.842,7.91614,8.49138,-11.54078
222,7.400,0.754,9.649,1.647,20.09216,7.16028,-3.28084
223,7.433,1.050,9.730,1.768,26.81593,8.83577,-0.91517
224,7.467,1.030,9.705,1.166,37.32787,9.63951,-2.27589
225,7.500,1.489,8.355,0.734,29.90528,2.41611,2.90919
226,7.533,1.406,6.786,0.054,12.21960,-7.67598,13.33067
227,7.567,1.516,6.050,-0.107,-2.93238,-3.54798,16.25506
228,7.600,1.459,6.789,-0.739,-21.32393,-1.90352,18.06239
229,7.633,1.419,8.109,2.944,-34.15006,10.65709,11.76375
230,7.667,-7.109,18.621,8.668,-54.34326,23.73000,-62.84020
231,7.700,1.181,9.269,-0.701,29.46578,25.98711,14.61571
232,7.733,4.308,12.633,7.645,-44.33760,-10.34381,11.67087
233,7.767,0.656,16.017,3.682,7.69131,-49.03938,-16.61704
234,7.800,-2.224,10.091,5.117,25.31434,-42.45037,-7.67735
235,7.833,-2.816,7.756,3.073,-17.55836,-14.13759,6.11566
236,7.867,-1.235,8.112,2.806,-23.66263,3.27832,9.23265
237,7.900,-1.080,8.366,2.490,2.44790,7.69075,10.04137
238,7.933,-1.267,7.812,3.116,-2.98826,12.26745,9.24857
239,7.967,-0.723,7.847,2.596,-15.66858,17.87085,5.13132
240,8.000,-0.216,9.006,2.469,-17.29946,9.43532,2.88786
241,8.033,0.163,10.077,1.601,-13.63313,-0.27761,0.70620
242,8.067,-0.059,10.161,1.414,-8.82205,-5.85570,-0.84883
243,8.100,-0.272,9.936,1.183,-7.55989,-8.31679,-1.44290
244,8.133,-0.441,10.085,1.347,-4.52281,-11.57790,-1.19499
245,8.167,-0.488,9.909,0.930,0.39479,-12.24705,-3.89418
246,8.200,-0.511,9.674,1.127,0.07999,-11.88945,-6.53764
247,8.233,-0.770,9.303,1.112,0.85300,-11.44142,-7.43498
248,8.267,-1.157,8.859,1.039,-4.36398,-5.07977,-4.28227
249,8.300,-0.565,9.106,1.039,-8.98227,-0.37374,-6.45586
250,8.333,-0.431,9.976,0.721,-4.58596,-0.26995,-8.71825
251,8.367,-0.570,9.872,0.803,-0.71849,-0.91303,-10.35120
252,8.400,-0.432,9.962,0.578,-3.16899,-0.45506,-9.40499
253,8.433,-0.522,10.065,-0.035,-1.83651,-1.02307,-6.60915
254,8.467,-0.761,10.109,-0.043,4.07551,0.91977,-6.01487
255,8.500,-0.758,10.219,-0.175,10.77603,3.92041,-4.76984
256,8.533,-0.699,9.654,-0.307,11.82971,5.16794,-3.28354
257,8.567,-0.675,10.067,0.205,-5.74405,5.13372,0.28371
258,8.600,0.438,11.497,0.996,-12.23458,4.71620,5.21063
259,8.633,1.119,12.018,2.298,4.95564,-21.75794,6.09921
260,8.667,-0.247,10.068,3.074,7.30110,-14.06198,-9.74301
261,8.700,-1.136,9.123,4.045,-0.72658,7.59423,-10.64015
262,8.733,0.041,9.423,3.426,12.25458,9.63824,6.72929
263,8.767,0.160,9.465,3.423,10.62501,4.37767,22.44182
264,8.800,1.921,10.267,3.023,2.17710,-8.02300,7.30663
265,8.833,1.766,10.766,2.477,9.47453,-8.66994,-16.78960
266,8.867,0.683,9.707,2.034,12.11916,3.86313,-15.63939
267,8.900,0.172,9.085,1.626,16.17494,10.90969,-1.15477
268,8.933,-0.167,9.155,1.389,18.58368,13.70679,7.21172
269,8.967,0.662,9.109,1.276,21.38507,17.98260,5.26933
270,9.000,1.246,9.081,0.862,21.91831,9.95129,5.22325
271,9.033,1.670,7.892,0.047,14.03038,-2.54150,11.58510
272,9.067,1.376,6.551,-0.165,0.17789,-6.67287,12.05357
273,9.100,0.941,6.262,-0.627,-10.19049,-8.25477,13.20595
274,9.133,1.304,5.263,0.621,-23.26366,-23.07858,18.70114
275,9.167,-4.142,19.613,12.007,-36.45910,72.68359,-62.10757
276,9.200,-1.989,12.411,0.900,-5.74087,17.89151,-9.46379
277,9.233,3.103,11.921,7.306,1.37077,10.10240,15.13378
278,9.267,0.150,14.925,5.321,4.04849,-33.07239,-3.84896
279,9.300,-1.885,10.293,4.494,13.15165,-16.10588,-4.55603
280,9.333,-2.375,8.099,3.585,-12.66992,9.99306,7.47001
281,9.367,-0.487,7.439,2.939,-9.70301,13.52047,10.93261
282,9.400,0.186,7.213,3.188,6.25252,7.73285,12.06004
283,9.433,-0.156,7.817,3.056,-3.15811,2.41523,8.53469
284,9.467,-0.098,8.364,2.790,-10.64964,0.34704,-1.92811
285,9.500,0.193,9.234,1.890,-13.48509,-2.30530,-7.69051
286,9.533,0.107,9.701,1.909,-5.87016,-10.94787,-5.93218
287,9.567,-0.323,9.619,2.027,-8.93800,-16.00101,-4.77141
288,9.600,-0.493,9.777,1.581,-6.39633,-16.39180,-2.21485
289,9.633,-0.089,9.618,1.938,-2.87930,-16.61574,-6.05316
290,9.667,-0.709,9.676,1.425,-2.50416,-14.90849,-9.50801
291,9.700,-1.057,9.694,1.597,-4.69315,-9.20573,-6.52153
292,9.733,-0.952,9.467,1.447,-4.67048,-3.46470,-5.79008
293,9.767,-1.087,9.705,1.362,-7.70010,0.35800,-5.49533
294,9.800,-0.434,9.982,1.288,-4.07935,6.60524,-7.89208
295,9.833,-0.212,10.143,1.146,-0.56021,3.23605,-10.55260
296,9.867,-0.253,9.991,1.460,1.66261,2.08912,-8.74997
297,9.900,-0.689,9.731,1.288,0.58771,1.95047,-7.57363
298,9.933,-0.599,9.625,1.076,-0.52727,2.76520,-5.91871
299,9.967,-0.444,9.504,0.847,1.71531,1.61865,-4.17218
300,10.000,-0.271,9.552,0.837,1.44747,1.76414,-2.51302
301,10.033,-0.195,10.325,1.060,-5.20803,-0.82429,1.59352
302,10.067,0.136,10.436,1.713,-3.36408,-7.99956,1.04837
303,10.100,0.539,10.943,1.959,-8.79312,-14.09799,1.71334
304,10.133,0.479,10.417,1.282,-3.21012,-24.58625,-0.20703
305,10.167,-0.648,9.801,1.821,-1.66772,-20.67041,-11.17346
306,10.200,-0.980,9.688,2.525,-1.52151,-4.04412,-11.33849
307,10.233,-1.248,9.341,3.671,5.67695,11.24515,3.36533
308,10.267,0.380,9.256,3.307,9.02476,17.13204,16.39722
309,10.300,1.394,10.425,2.512,1.87803,8.76619,10.82135
310,10.333,1.488,10.352,2.700,-3.31398,2.21006,-3.41682
311,10.367,0.458,11.141,2.166,-2.93909,8.54953,-11.72712
312,10.400,0.271,10.429,1.200,11.97143,14.52491,-6.96638
313,10.433,0.552,9.436,1.292,19.74441,13.12407,2.61686
314,10.467,1.142,9.419,1.186,21.88899,14.08178,3.20058
315,10.500,1.611,9.489,1.155,31.53085,7.35096,1.34362
316,10.533,1.515,8.879,0.632,25.33954,-1.08064,1.61476
317,10.567,0.848,7.597,0.135,10.82263,-3.88054,7.84267
318,10.600,0.399,7.205,-0.161,2.77999,1.56645,13.50389
319,10.633,0.721,7.438,-0.436,-14.12396,7.38500,15.68437
320,10.667,1.996,6.503,-0.461,-25.72062,-1.83731,18.37168
321,10.700,1.819,10.759,5.022,-42.91700,12.47401,2.47412
322,10.733,-6.882,19.571,6.010,-57.23303,24.21786,-74.33603
323,10.767,3.909,10.364,4.342,25.44210,18.04166,5.30557
324,10.800,2.919,12.509,6.359,-9.16355,-32.94882,6.72963
325,10.833,-1.556,13.322,3.502,36.21317,-46.75631,-16.62962
326,10.867,-2.197,8.997,3.554,19.40557,-24.56092,-11.90253
327,10.900,-2.282,6.813,2.235,-11.81325,1.10893,7.89368
328,10.933,-2.077,6.862,2.035,-8.24532,24.52845,17.31166
329,10.967,-0.837,7.217,2.695,-2.83749,22.02031,20.04741
330,11.000,-0.223,7.730,2.964,-13.05915,21.15028,14.74545
331,11.033,0.063,9.082,2.354,-22.02284,20.70889,7.66647
332,11.067,0.075,10.135,1.713,-13.45878,11.75726,2.48664
333,11.100,0.423,9.778,1.822,-5.04007,4.06361,3.59190
334,11.133,-0.232,9.843,2.345,-5.04549,-5.44223,4.32067
335,11.167,-0.855,9.897,1.637,-1.12111,-2.48024,-1.65614
336,11.200,-0.646,9.284,1.571,-5.49466,-2.46511,-0.65552
337,11.233,-0.438,9.476,0.940,-7.18036,-2.13042,-2.10943
338,11.267,-0.292,10.103,0.980,-7.02629,-3.04580,-5.53435
339,11.300,-0.299,9.916,1.366,-3.87341,-7.26366,-6.53125
340,11.333,-0.512,9.745,1.436,-2.29299,-9.15941,-6.16165
341,11.367,-0.786,9.601,1.549,-1.49265,-7.18322,-9.03675
342,11.400,-0.912,9.663,1.282,-1.73861,-6.83334,-7.99637
343,11.433,-0.598,9.884,0.963,-3.87618,-3.95481,-6.99256
344,11.467,-0.626,9.748,0.855,-4.18447,-3.53431,-9.87832
345,11.500,-1.136,9.671,0.572,-5.92861,0.30548,-11.62181
346,11.533,-1.005,9.502,0.411,-2.36802,3.29396,-10.61349
347,11.567,-0.790,9.547,0.627,-5.49054,6.18294,-8.08967
348,11.600,0.050,10.390,0.814,-11.64357,3.82114,-5.65868
349,11.633,0.741,11.181,1.916,-8.83040,-8.26172,-0.47068
350,11.667,0.169,10.838,3.075,-4.63189,-16.07476,1.35056
351,11.700,-0.176,10.049,3.448,-3.76566,-9.35534,-1.12120
352,11.733,-0.129,9.377,3.264,2.69575,4.09887,2.81732
353,11.767,0.383,9.952,2.699,7.89587,5.54423,9.60265
354,11.800,0.619,10.588,2.085,3.75692,1.93062,13.36501
355,11.833,1.639,11.036,2.326,9.67708,-0.70514,-2.45543
356,11.867,1.708,10.088,2.570,16.62391,0.22808,-13.33572
357,11.900,0.930,8.712,2.048,14.56635,3.45839,-11.19808
358,11.933,0.120,8.416,2.071,10.44831,6.93514,-6.09163
359,11.967,0.249,9.078,1.280,9.10706,12.16184,-1.61371
360,12.000,0.838,9.615,0.455,13.15642,16.25955,2.69701
361,12.033,1.262,9.232,-0.125,17.06337,10.89641,8.20231
362,12.067,1.748,7.385,-0.360,11.86026,-6.99790,13.06132
363,12.100,1.124,6.687,-0.138,-6.00192,1.73214,7.89894
364,12.133,1.778,5.831,-0.843,-24.64489,-6.88577,9.89710
365,12.167,1.758,7.674,1.685,-51.32237,-0.74968,2.82171
366,12.200,-10.638,18.259,12.587,-85.90064,90.76434,-64.64133
367,12.233,2.513,12.778,1.779,20.82954,13.40253,3.77673
368,12.267,2.654,15.079,6.197,-26.77350,-9.15168,3.49684
369,12.300,0.142,13.269,3.062,25.37254,-38.26941,-8.40451
370,12.333,-1.378,9.698,4.287,14.63137,-33.33931,-4.12547
371,12.367,-2.181,8.486,2.181,-4.77109,-14.96415,8.85180
372,12.400,-1.177,7.937,2.417,6.83303,-4.27659,15.31316
373,12.433,-0.409,7.423,2.379,8.16115,-6.02768,12.25798
374,12.467,-0.023,7.572,2.329,-6.11998,-7.33339,8.03576
375,12.500,-0.200,8.336,1.792,-17.42587,-4.58090,-1.44819
376,12.533,-0.329,9.787,1.542,-12.66943,-7.92665,-3.82426
377,12.567,-0.357,10.061,1.055,-2.13673,-9.64900,-4.39424
378,12.600,-0.720,9.990,1.424,-3.63569,-7.64096,-5.13837
379,12.633,-0.542,9.831,1.225,0.70908,-6.09021,-2.46493
380,12.667,-0.364,9.583,1.249,-0.19742,-4.17382,-3.22321
381,12.700,-0.558,9.961,1.279,1.63492,-0.47022,-4.81308
382,12.733,-0.884,9.909,1.419,6.49085,2.49451,-4.96646
383,12.767,-0.703,9.612,1.298,6.91114,5.32706,-3.22646
384,12.800,-0.502,9.433,1.121,6.23062,7.61637,-1.04809
385,12.833,-0.408,9.591,1.238,6.34356,7.55854,-1.44030
386,12.867,-0.424,9.721,0.960,9.40059,7.38591,-4.81626
387,12.900,-0.527,9.798,0.994,9.07569,7.32710,-6.87501
388,12.933,-0.539,9.620,0.944,8.37388,7.19265,-6.27021
389,12.967,-0.647,9.640,0.766,8.15068,8.33167,-4.48987
390,13.000,-0.792,10.110,0.956,5.72605,9.99059,-2.69717
391,13.033,-0.215,10.865,1.447,-2.21080,7.53424,1.55392
392,13.067,0.593,10.625,1.294,3.27072,-4.35448,2.44116
393,13.100,-0.199,10.259,1.731,5.89768,-11.36395,-0.21609
394,13.133,-0.276,10.150,2.327,-0.45539,-7.10616,-5.12214
395,13.167,-0.111,9.749,3.215,2.16810,-1.17475,-5.98921
396,13.200,0.006,8.901,3.603,7.97257,-2.06453,0.38719
397,13.233,0.670,8.545,3.376,4.40882,0.19591,13.73226
398,13.267,1.697,10.193,2.877,3.20079,-7.45799,13.95779
399,13.300,1.456,11.138,2.684,2.25392,-13.24687,-2.82577
400,13.333,0.442,10.614,2.322,4.61878,-8.49316,-11.10757
401,13.367,0.435,9.411,1.433,16.78397,-1.30316,-4.32508
402,13.400,0.498,9.163,1.302,20.67074,7.28551,0.57533
403,13.433,0.557,9.398,0.970,20.55218,10.57058,1.15057
404,13.467,1.331,8.853,0.603,19.01276,6.87976,3.25540
405,13.500,2.090,7.222,-0.337,0.35354,-11.50952,8.35236
406,13.533,1.568,5.899,-0.808,0.34598,4.85281,11.62907
407,13.567,0.877,5.647,-0.597,-18.13529,-10.34918,11.72758
408,13.600,0.917,6.522,2.430,-36.24772,-0.11264,22.94565
409,13.633,-7.491,19.613,10.615,-43.40059,60.91769,-46.89415
410,13.667,1.866,10.404,3.237,11.37104,42.65358,-8.19103
411,13.700,2.727,15.517,7.910,-25.92076,36.23026,1.50454
412,13.733,-1.241,15.665,4.454,11.92446,-14.19571,-14.30161
413,13.767,-1.738,10.180,5.432,18.39253,1.96448,-4.92460
414,13.800,-0.914,8.577,3.259,-15.39935,-0.99916,4.49132
415,13.833,-0.756,7.865,2.738,-2.92103,0.97398,10.34476
416,13.867,-0.429,7.216,2.699,4.09497,3.73414,12.87215
417,13.900,-0.575,7.060,2.486,-8.13776,10.10630,5.23622
418,13.933,-0.328,7.975,2.505,-12.07379,7.43492,-4.28027
419,13.967,0.187,9.281,2.221,-5.66791,-4.53296,-4.96342
420,14.000,-0.077,9.725,2.082,-1.07916,-12.64270,-2.05806
421,14.033,-0.196,9.603,2.206,-3.28669,-17.97484,-3.41717
422,14.067,-0.142,9.679,1.696,-1.16556,-20.63657,-2.47234
423,14.100,-0.756,9.505,1.515,1.70559,-19.25693,-4.70104
424,14.133,-1.060,9.361,1.115,0.17134,-14.03617,-4.60260
425,14.167,-0.958,9.317,1.115,0.36214,-8.54398,-5.12611
426,14.200,-0.647,9.349,0.980,-2.01075,-3.67109,-5.97115
427,14.233,-0.530,9.456,0.928,0.11257,-1.14773,-5.36096
428,14.267,-0.530,9.720,1.219,0.89105,-1.47744,-5.43092
429,14.300,-0.594,10.143,1.317,3.15914,1.25858,-6.07605
430,14.333,-0.918,10.154,1.269,3.95961,9.89883,-10.59449
431,14.367,-1.587,9.481,0.982,-3.61888,16.15419,-7.04750
432,14.400,-0.357,10.047,1.005,-16.62996,16.55235,-0.73816
433,14.433,0.927,10.290,1.306,-17.67590,-0.49708,-0.47393
434,14.467,0.955,10.971,1.962,-15.29843,-13.74071,-1.47913
435,14.500,-0.058,11.767,3.029,-7.54526,-12.10857,-6.55063
436,14.533,-0.167,10.832,3.491,5.83371,-5.25890,-7.45258
437,14.567,0.186,8.458,3.465,9.45486,2.48691,-2.10211
438,14.600,0.661,8.163,3.760,6.35438,-1.70400,6.12295
439,14.633,1.259,9.313,2.822,-3.05550,-7.71347,13.39450
440,14.667,2.040,10.668,2.341,-4.17675,-13.19706,-0.97776
441,14.700,1.262,10.192,2.434,4.18922,-11.01427,-13.73319
442,14.733,0.110,10.007,1.934,4.40193,0.15662,-9.68023
443,14.767,0.057,9.569,1.532,10.76108,10.35260,-2.86340
444,14.800,0.264,9.900,1.118,11.93517,15.41621,4.32629
445,14.833,1.087,9.650,1.052,16.50335,13.76050,4.69481
446,14.867,1.834,9.462,0.869,17.68672,9.29464,0.59501
447,14.900,1.439,9.131,0.185,20.37844,1.51197,2.47570
448,14.933,1.267,7.839,-0.863,24.56628,-15.70775,13.25107
449,14.967,1.245,6.585,-0.788,19.98824,-18.14893,20.86193
450,15.000,1.165,6.309,-0.555,1.65048,-0.97476,15.86818
451,15.033,1.460,6.464,2.041,-27.61308,-4.03733,20.98086
452,15.067,-6.494,19.409,17.420,-47.02059,81.64126,-37.59183
453,15.100,0.944,10.923,0.897,15.36424,19.96007,-13.88736
454,15.133,5.209,12.021,6.911,-23.91997,-12.23987,30.61929
455,15.167,-1.071,16.712,4.080,0.85205,-35.33492,-13.71261
456,15.200,-1.572,9.826,4.937,25.12106,-28.35885,-7.63106
457,15.233,-1.955,6.758,3.797,-14.79698,-13.04551,7.25659
458,15.267,-0.929,7.093,3.506,-15.91538,-11.81207,9.41672
459,15.300,-0.170,7.297,3.370,4.71400,-15.15287,9.45619
460,15.333,-0.549,7.614,3.922,-5.84729,-8.01778,0.33974
461,15.367,-1.661,8.234,3.488,-19.31547,-1.68216,-5.94530
462,15.400,-0.929,9.113,3.061,-13.60080,-1.24199,-5.15920
463,15.433,-0.353,10.003,2.719,-5.36015,-7.23860,-3.66904
464,15.467,-0.751,9.948,2.709,-3.81240,-12.03149,-3.48284
465,15.500,-0.876,9.156,2.496,-7.78167,-9.62744,-0.73987
466,15.533,-0.594,9.168,2.296,-10.47535,-7.20937,0.76133
467,15.567,-0.711,9.689,2.005,-6.56774,-5.85882,-1.42126
468,15.600,-0.738,9.623,2.104,-4.45457,-2.37602,-3.01075
469,15.633,-0.557,9.623,2.057,-5.57464,-0.21871,-3.86167
470,15.667,-0.597,9.794,2.075,-4.62529,0.40930,-5.08766
471,15.700,-0.393,9.716,1.940,-3.78891,0.62293,-4.93701
472,15.733,-0.436,9.929,1.902,-5.06402,-0.24945,-2.51652
473,15.767,-0.402,9.946,1.900,-0.51081,-0.71861,-4.57093
474,15.800,-0.452,9.696,1.734,-0.66989,-0.86168,-5.38174
475,15.833,-0.563,9.767,1.565,-1.32969,0.43870,-3.62363
476,15.867,-0.508,9.889,1.603,0.52068,3.10197,-3.68290
477,15.900,-0.730,9.699,1.662,0.65479,7.86531,-4.80699
478,15.933,-0.723,9.756,1.608,1.25859,11.15917,-3.44626
479,15.967,-0.332,9.436,1.138,-1.45514,10.61197,-1.75875
480,16.000,-0.284,9.569,0.857,-7.10137,11.00993,-1.43951
481,16.033,-0.431,10.029,0.573,-7.09785,14.13972,0.19188
482,16.067,-0.613,10.012,0.947,1.00709,16.31463,1.02363
483,16.100,-0.709,10.199,0.540,10.81329,22.51921,-3.67725
484,16.133,-0.254,11.279,2.056,7.86157,16.32091,-1.09615
485,16.167,0.025,10.362,2.527,14.80731,5.85883,7.62873
486,16.200,-0.649,9.426,2.861,13.38413,-1.32112,2.35663
487,16.233,-0.772,9.934,3.845,6.65768,13.25197,-4.65766
488,16.267,-0.242,10.136,4.017,20.36504,26.42234,-6.87056
489,16.300,0.015,9.545,4.093,26.03879,28.95056,3.90935
490,16.333,1.410,8.733,3.969,19.34394,21.45925,7.71906
491,16.367,1.811,11.151,4.708,13.84777,8.62116,-3.21174
492,16.400,2.013,10.916,2.980,23.24503,-3.00628,-14.60248
493,16.433,1.432,9.051,3.457,18.35160,-7.55810,-9.70739
494,16.467,1.012,7.849,2.631,6.99044,-7.69517,-2.69459
495,16.500,1.952,6.880,1.450,-15.00233,-18.80988,0.34685
496,16.533,2.476,5.381,0.654,-24.67351,-37.77192,6.78761
497,16.567,3.050,10.534,4.259,-14.02761,-29.62917,-6.51488
498,16.600,-2.597,16.550,4.740,-10.55466,-41.03684,-60.99444
499,16.633,-2.532,5.871,2.921,0.13140,-3.64918,-14.60288
500,16.667,0.481,5.945,6.058,-65.64978,7.03841,7.34985
501,16.700,0.942,9.815,4.561,-45.33938,-16.45309,5.65911
502,16.733,0.514,12.266,3.609,-31.68355,-37.52578,-4.45991
503,16.767,-1.835,10.745,3.211,0.38406,-39.36432,-4.58825
504,16.800,-1.922,9.660,3.775,-8.51331,-8.21939,-3.04258
505,16.833,-0.734,11.173,1.986,-11.84434,0.82151,-0.70376
506,16.867,0.538,10.450,1.831,2.29600,0.25953,-2.44659
507,16.900,0.156,9.732,1.935,-4.53673,-3.97948,-1.50757
