frame_number,sync_timestamp,accel_x,accel_y,accel_z,gyro_x,gyro_y,gyro_z
0,0.000,-0.151,9.084,2.411,-3.19847,-5.00763,-1.66412
1,0.033,-0.381,9.548,2.182,-7.08950,-6.46335,-1.71952
2,0.067,-0.378,9.726,2.244,-7.93040,-7.14729,-1.70436
3,0.100,-0.404,9.797,2.183,-9.56805,-8.10261,-2.75610
4,0.133,-0.347,9.947,2.027,-7.15233,-8.37867,-2.88613
5,0.167,-0.390,10.087,2.049,-2.12115,-7.89456,-1.87915
6,0.200,-0.612,10.053,1.979,-0.74903,-6.28546,-1.22349
7,0.233,-0.650,9.784,2.153,0.77070,-3.09997,-1.33588
8,0.267,-0.491,9.546,2.255,1.18041,-1.93059,-1.21748
9,0.300,-0.472,9.597,2.149,-0.34833,-1.18351,-0.59633
10,0.333,-0.390,9.728,2.022,-0.25174,-1.02793,-0.56541
11,0.367,-0.532,9.784,2.237,-1.11680,0.39464,-1.67008
12,0.400,-0.526,9.468,2.465,-4.25945,3.41584,-2.52588
13,0.433,-0.294,10.020,2.094,-2.42753,-0.11958,0.29896
14,0.467,-0.685,10.406,1.655,5.67875,-0.21877,1.50453
15,0.500,-0.635,10.208,2.154,9.71351,1.70528,-0.23519
16,0.533,-0.401,9.628,2.306,5.23518,-3.96787,0.33470
17,0.567,-0.445,9.399,1.571,2.97342,-6.60951,1.54593
18,0.600,-0.207,9.239,1.522,2.74252,-7.30136,-2.29591
19,0.633,-0.408,9.542,1.572,1.16576,-9.69936,-5.37255
20,0.667,-0.141,9.907,1.537,-2.08945,-14.72342,-4.56273
21,0.700,-0.179,10.104,1.267,1.49946,-17.27807,-4.67228
22,0.733,-0.305,9.861,1.623,3.51547,-19.64399,-6.46898
23,0.767,-0.321,9.652,1.594,2.75583,-20.91318,-6.85291
24,0.800,-0.535,9.586,1.782,3.33863,-20.57435,-6.60708
25,0.833,-0.275,9.553,1.906,-0.96216,-18.40427,-8.00375
26,0.867,0.068,10.042,2.019,-2.83762,-13.84938,-14.53967
27,0.900,-0.041,10.429,2.534,3.29986,-6.08693,-20.96109
28,0.933,-1.152,10.408,2.941,12.89657,9.34466,-23.09785
29,0.967,-0.871,8.932,3.045,16.02666,18.44902,-12.25316
30,1.000,0.231,8.821,2.128,13.67812,15.39195,2.72569
31,1.033,1.448,11.499,1.233,15.22574,9.75488,5.76185
32,1.067,2.800,12.905,2.023,36.92953,10.04162,2.19535
33,1.100,0.420,9.950,2.754,43.70095,10.74127,2.57054
34,1.133,0.225,7.601,2.301,24.36415,13.36844,11.09696
35,1.167,0.865,8.028,0.944,13.87503,6.90744,23.68701
36,1.200,2.515,8.512,0.690,21.41008,-5.67923,39.79789
37,1.233,3.398,6.114,0.215,16.63934,-27.96447,52.46467
38,1.267,2.840,5.739,0.645,-4.50278,-61.35781,52.16001
39,1.300,0.666,12.201,5.770,-36.12722,-24.44917,13.93231
40,1.333,-15.112,19.560,5.399,-78.16688,5.42499,-10.71198
41,1.367,-1.526,9.354,1.173,56.01830,77.70342,40.43106
42,1.400,2.037,9.030,6.584,-33.40532,-12.76709,19.43498
43,1.433,-0.083,8.975,2.899,-6.09738,-16.39370,5.70042
44,1.467,-2.277,8.221,4.792,15.55547,-28.93572,13.49728
45,1.500,-2.690,7.051,3.008,-21.09027,-21.88645,-1.77016
46,1.533,-2.729,7.593,3.664,-7.94792,-5.62711,2.29623
47,1.567,-2.450,8.076,4.552,-4.67112,-9.64358,3.55955
48,1.600,-2.216,9.066,3.996,-16.19790,-4.30770,3.77055
49,1.633,-2.058,9.112,3.617,-14.33088,-4.69496,3.77364
50,1.667,-2.305,8.352,3.486,-12.87292,0.78821,-1.20872
51,1.700,-3.072,8.684,3.444,-17.94811,7.43923,2.73991
52,1.733,-2.866,8.888,3.058,-19.36302,13.10425,6.36718
53,1.767,-2.487,8.793,3.088,-21.12741,17.89712,6.06524
54,1.800,-2.322,8.827,2.666,-21.15162,23.21577,6.35916
55,1.833,-2.437,9.408,2.409,-18.36072,21.52279,8.50457
56,1.867,-2.365,8.995,2.266,-23.43398,22.73422,9.84733
57,1.900,-1.834,9.216,2.142,-27.45990,22.61468,9.36122
58,1.933,-1.775,9.334,2.205,-23.54889,15.92060,5.25639
59,1.967,-1.725,9.917,1.841,-20.06286,15.57060,2.74646
60,2.000,-1.431,9.540,1.840,-18.58787,14.61578,0.85701
61,2.033,-1.873,9.638,1.715,-16.10525,7.22934,-1.39745
62,2.067,-2.032,10.067,1.549,-9.95569,8.15391,0.47100
63,2.100,-1.892,9.817,1.767,-2.50290,4.06555,2.81390
64,2.133,-2.037,9.629,1.724,-0.87527,0.38348,3.38570
65,2.167,-1.907,9.595,1.554,6.46958,2.56350,1.75486
66,2.200,-2.060,9.688,1.787,5.62323,-0.57368,1.57107
67,2.233,-1.815,9.198,1.623,9.75781,-2.39240,-3.03421
68,2.267,-1.938,9.259,1.472,10.91722,-3.99099,-8.32332
69,2.300,-1.748,9.552,1.249,11.69537,-0.20925,-13.88903
70,2.333,-1.484,9.430,1.095,16.27246,-5.53351,-16.20386
71,2.367,-2.041,10.089,1.195,18.84105,-1.10279,-19.06619
72,2.400,-2.014,10.599,1.480,19.70877,6.95734,-17.99260
73,2.433,-1.898,10.337,1.714,18.39386,0.33867,-14.96501
74,2.467,-2.253,10.112,1.683,11.99820,4.12248,-14.90355
75,2.500,-2.388,9.944,2.131,15.42472,9.29382,-16.60849
76,2.533,-2.625,9.361,3.050,25.67198,17.73788,-18.59907
77,2.567,-1.753,8.166,3.007,20.96589,16.43515,-19.51783
78,2.600,-0.202,8.319,3.282,7.71060,8.13660,-27.97285
79,2.633,-0.856,9.656,3.788,1.24699,6.83574,-41.27500
80,2.667,-3.635,9.455,6.209,-16.43265,35.42470,-37.94978
81,2.700,-3.002,7.279,2.795,-14.57524,42.61249,-1.99889
82,2.733,1.482,8.284,1.205,49.28524,20.31833,31.74799
83,2.767,4.084,16.462,4.546,-41.91020,25.00730,-10.19883
84,2.800,0.487,10.758,0.926,33.93150,32.10511,-16.82673
85,2.833,1.599,5.975,0.830,32.19009,28.31742,15.02293
86,2.867,3.457,4.658,-3.105,36.78889,-8.13246,29.31869
87,2.900,6.061,3.605,-1.453,55.00298,-13.64956,18.88987
88,2.933,2.864,4.821,2.423,-18.96583,-38.96348,20.92922
89,2.967,-18.825,19.611,19.477,-216.05489,-63.06197,-16.31754
90,3.000,3.778,14.027,-3.045,42.44334,-10.27087,17.04312
91,3.033,-0.040,6.220,10.639,71.07166,13.23964,25.92271
92,3.067,-1.852,5.449,5.171,-30.16116,-64.76175,24.52861
93,3.100,-2.797,7.759,3.000,-32.06593,-33.36791,29.31743
94,3.133,-0.894,9.059,4.338,-16.85013,-21.39680,9.53183
95,3.167,-0.608,7.401,3.308,3.47467,-35.17809,-5.50579
96,3.200,-1.755,6.050,4.522,12.01225,-20.93264,-7.44624
97,3.233,-2.538,8.205,3.997,-17.05480,-7.23010,-12.92386
98,3.267,-2.257,10.479,3.069,-35.26419,-1.49388,-6.94634
99,3.300,-0.921,10.008,2.374,-15.31655,-12.52128,-0.50195
100,3.333,-1.105,8.714,3.003,-0.11170,-23.71798,-6.06622
101,3.367,-1.800,9.802,3.872,-1.85697,-23.57677,-10.52986
102,3.400,-0.604,9.764,3.634,-0.24617,-37.26976,-5.51950
103,3.433,-1.200,8.468,3.408,8.41224,-40.69675,-10.54525
104,3.467,-2.613,8.589,2.864,-5.57356,-28.86816,-14.06824
105,3.500,-3.088,9.710,2.610,-10.59617,-13.21746,-6.09049
106,3.533,-2.424,9.383,2.228,-6.25569,-6.15772,-5.88429
107,3.567,-1.666,9.401,2.190,-7.16001,0.71223,-7.45645
108,3.600,-1.118,9.506,2.100,6.04430,2.47864,-10.22730
109,3.633,-1.698,8.995,1.445,6.75441,8.01472,-13.62596
110,3.667,-2.117,8.828,1.738,-4.38363,15.72184,-9.21335
111,3.700,-1.857,9.582,1.668,-10.83532,22.39026,-6.38768
112,3.733,-1.629,10.463,1.495,-2.32089,27.30120,-5.40245
113,3.767,-1.528,10.458,1.511,2.82243,31.04803,-3.61080
114,3.800,-1.254,10.143,1.414,6.01950,23.64071,0.09669
115,3.833,-0.769,10.354,1.470,7.42123,21.90828,-0.95663
116,3.867,-1.063,9.966,2.105,6.56313,19.02678,-6.70510
117,3.900,-0.889,9.740,2.128,1.26516,6.83471,-5.24962
118,3.933,-1.233,10.273,2.426,4.14242,5.02379,-11.45167
119,3.967,-1.179,10.230,2.960,9.36294,10.46642,-16.60250
120,4.000,-0.926,9.977,4.021,8.49532,17.48389,-23.87266
121,4.033,0.341,10.168,4.414,15.89288,18.76940,-25.21814
122,4.067,0.389,9.157,4.504,22.82076,10.99191,-16.33933
123,4.100,-0.441,7.630,4.181,23.20769,14.32804,-0.64469
124,4.133,0.106,8.668,4.301,30.19750,28.58762,16.14566
125,4.167,0.612,10.339,3.471,12.85076,32.90759,8.23075
126,4.200,0.943,10.105,2.935,3.04494,34.02507,3.58593
127,4.233,1.463,8.611,1.242,12.78778,24.12754,14.94723
128,4.267,2.658,7.863,-0.256,24.56765,1.54018,25.17099
129,4.300,4.820,7.131,-1.170,21.47290,-32.18751,32.89647
130,4.333,5.749,4.444,-0.601,-12.19511,-43.99515,31.76812
131,4.367,3.034,10.246,10.581,-56.31211,-55.96286,23.27423
132,4.400,-19.221,19.613,4.263,15.67688,-37.08228,-49.34663
133,4.433,-0.711,10.217,2.356,46.28379,48.70723,12.95969
134,4.467,-4.366,8.384,10.105,0.37556,-4.13911,26.61417
135,4.500,-2.800,8.889,3.974,-3.44689,-3.00674,34.78949
136,4.533,-1.712,8.570,5.710,-22.21606,-7.06270,22.99682
137,4.567,-0.488,7.387,3.043,-3.20380,-11.77803,7.21465
138,4.600,-1.165,6.202,4.467,1.63223,-14.13673,2.67640
139,4.633,-1.984,6.961,4.301,-16.24146,-9.18722,-2.14853
140,4.667,-1.863,8.705,3.659,-25.02943,-2.07959,-8.23755
141,4.700,-1.688,9.150,3.546,-15.94766,-8.47946,-10.65593
142,4.733,-1.724,8.684,3.696,-7.19596,-11.07730,-13.11468
143,4.767,-2.324,8.874,3.612,-18.00445,-8.77275,-8.12897
144,4.800,-2.817,9.256,3.392,-18.93213,-4.23725,-5.17070
145,4.833,-2.167,8.919,3.012,-16.49918,-2.19445,-0.69366
146,4.867,-1.984,8.950,3.317,-15.83833,-2.11601,-0.55633
147,4.900,-1.931,8.929,3.292,-9.69333,1.59952,-2.43962
148,4.933,-1.807,9.053,3.182,-11.15090,5.34025,-4.20597
149,4.967,-1.850,8.910,2.577,-11.67938,10.40898,-3.70704
150,5.000,-1.440,9.235,2.395,-17.34990,3.98206,-3.74805
151,5.033,-1.381,9.744,2.196,-13.38384,0.87904,-5.02350
152,5.067,-1.220,9.334,1.735,-9.66336,-1.36486,-6.70301
153,5.100,-1.630,9.415,2.076,-9.35317,2.91806,-8.41326
154,5.133,-1.524,9.872,1.876,-4.84944,3.30799,-8.94531
155,5.167,-1.851,9.573,1.793,-2.47120,5.70482,-10.62846
156,5.200,-1.889,9.529,1.596,-9.37253,8.68077,-11.69528
157,5.233,-1.808,10.187,1.503,-8.96300,12.69569,-8.17545
158,5.267,-1.359,11.090,1.060,1.34981,16.21034,-8.66656
159,5.300,-1.008,10.313,1.065,9.04512,13.33800,-6.95329
160,5.333,-1.864,10.614,1.222,6.74892,17.90372,-5.75403
161,5.367,-2.245,10.822,1.467,15.38997,24.09420,-6.41351
162,5.400,-1.095,10.451,1.661,15.23093,20.85898,-7.69117
163,5.433,-0.330,9.751,2.282,11.00279,9.37941,-9.92867
164,5.467,-0.334,9.233,2.006,6.05589,4.35571,-12.45107
165,5.500,-1.159,8.881,2.138,3.46849,6.67450,-22.67458
166,5.533,-1.227,8.827,3.035,5.46633,13.48352,-31.78466
167,5.567,-0.855,9.357,3.127,13.01007,9.40121,-31.75042
168,5.600,-0.902,9.103,4.401,9.88995,13.59379,-16.93655
169,5.633,-0.423,7.888,4.232,-0.67468,21.76675,-3.02445
170,5.667,1.568,9.702,3.481,24.95539,3.46869,20.83471
171,5.700,1.819,12.812,3.424,15.81736,3.10756,4.36709
172,5.733,0.709,12.375,1.773,17.13495,8.15367,-15.12098
173,5.767,1.909,8.829,2.203,36.98969,4.15801,2.09370
174,5.800,1.985,6.863,0.222,32.78167,-4.46302,13.97017
175,5.833,2.035,6.819,-0.765,18.10064,-5.51845,21.38495
176,5.867,3.079,5.913,-1.550,4.35679,-26.44709,28.59447
177,5.900,3.264,5.292,-0.253,-2.96634,-71.74589,53.98059
178,5.933,1.526,11.386,10.695,-15.60969,-67.46821,38.95733
179,5.967,-17.273,17.797,2.014,-9.29084,-67.58406,-75.64201
180,6.000,1.319,5.082,5.640,79.38767,50.02299,22.18908
181,6.033,-0.530,9.719,10.205,-23.53929,-31.78819,30.55617
182,6.067,-3.183,10.265,2.205,18.09266,-19.35068,25.29145
183,6.100,-2.941,6.440,6.019,-2.73449,-14.89558,27.43319
184,6.133,-1.598,6.043,3.100,-26.19025,-14.39231,8.63113
185,6.167,-0.755,6.522,3.874,10.95422,-11.72963,3.76256
186,6.200,-1.546,6.709,4.918,-8.28750,-7.46984,-0.41770
187,6.233,-2.215,7.515,4.348,-30.42813,-1.69618,-10.79096
188,6.267,-2.560,8.612,3.699,-23.84762,-0.73253,-10.09272
189,6.300,-1.992,8.779,3.770,-19.84841,1.11939,-9.31193
190,6.333,-1.980,8.474,4.083,-21.80182,-2.60932,-8.56803
191,6.367,-2.937,8.750,3.607,-22.71299,6.87348,-5.59957
192,6.400,-2.330,8.997,3.129,-21.83963,8.84449,-3.18529
193,6.433,-2.020,9.273,2.932,-19.61371,8.69995,-2.92853
194,6.467,-1.920,9.310,2.950,-14.11890,10.12586,-5.52944
195,6.500,-2.067,9.222,2.914,-15.68233,8.74554,-4.62205
196,6.533,-1.731,9.332,2.663,-15.69138,4.73521,-3.90403
197,6.567,-1.571,9.191,2.420,-15.95078,2.42272,-6.01384
198,6.600,-1.749,9.063,2.181,-16.15755,4.17404,-8.82553
199,6.633,-1.684,9.476,2.299,-13.53944,4.46992,-11.68890
200,6.667,-1.587,9.644,2.237,-10.05996,3.53956,-12.82718
201,6.700,-1.790,9.675,2.283,-8.67919,0.67189,-12.00654
202,6.733,-1.920,9.758,1.763,-8.86155,4.55869,-11.00577
203,6.767,-1.771,9.852,1.970,-7.58244,8.08306,-11.21663
204,6.800,-1.527,10.257,1.752,-7.11191,8.40901,-10.69237
205,6.833,-1.301,10.551,1.543,0.01818,10.82889,-11.53168
206,6.867,-1.468,10.224,1.431,8.44815,9.22121,-11.41985
207,6.900,-0.963,10.105,1.358,11.11791,2.75934,-10.42567
208,6.933,-0.815,9.952,1.390,11.73822,5.58719,-13.59292
209,6.967,-0.365,9.874,1.949,7.69345,5.64165,-17.31733
210,7.000,-0.737,10.032,2.309,8.41447,1.12906,-14.94201
211,7.033,-1.201,9.483,2.553,10.59920,1.48843,-15.59933
212,7.067,-1.647,8.988,2.990,4.99675,8.09523,-24.45269
213,7.100,-0.511,9.337,3.250,2.90068,12.40366,-27.34760
214,7.133,-0.796,9.524,3.996,12.37370,15.15163,-17.30402
215,7.167,-0.430,8.073,3.662,14.64461,28.33884,-2.97068
216,7.200,0.831,8.959,3.389,22.09072,14.04767,15.30096
217,7.233,1.244,11.813,4.359,31.06558,19.40824,21.56782
218,7.267,1.095,13.099,3.490,17.18123,9.23040,-5.15094
219,7.300,1.068,9.486,2.663,42.16992,13.29917,-2.09769
220,7.333,1.322,7.560,1.565,22.59215,12.60163,2.93542
221,7.367,2.326,7.760,-0.420,17.94755,4.95352,7.48780
222,7.400,3.227,7.660,-1.829,23.44271,-19.26831,24.97144
223,7.433,3.126,5.534,-0.672,22.39793,-39.75274,28.85423
224,7.467,3.413,6.113,0.999,-7.62039,-85.17428,34.67104
225,7.500,-1.770,19.613,15.617,-61.95154,-38.62921,10.52935
226,7.533,-10.521,12.688,4.620,-53.05220,-17.23027,-32.74784
227,7.567,2.427,10.753,7.177,79.45870,33.93710,41.85805
228,7.600,0.499,10.625,7.879,3.19831,-47.86403,27.83532
229,7.633,-3.550,10.305,2.626,12.08976,-37.43177,27.05801
230,7.667,-2.467,5.783,4.850,-0.38902,-7.41274,18.59648
231,7.700,-0.950,4.707,3.162,-25.56988,-8.41875,11.42138
232,7.733,-1.384,5.988,4.379,-5.56261,-16.17546,14.06587
233,7.767,-1.904,7.581,4.852,0.54142,-7.71853,3.67851
234,7.800,-1.676,8.196,3.804,-19.98899,-6.30898,-7.02823
235,7.833,-1.845,8.136,3.807,-25.01263,-10.58284,-9.54655
236,7.867,-1.816,9.488,3.884,-21.97435,-15.91277,-10.24083
237,7.900,-1.686,9.441,3.525,-14.60987,-19.50067,-7.13344
238,7.933,-1.195,9.070,3.671,-21.66397,-26.74927,-9.20371
239,7.967,-1.751,9.150,2.590,-17.78798,-29.70463,-13.83712
240,8.000,-2.074,9.139,2.867,-12.97825,-28.86560,-16.72312
241,8.033,-2.113,8.787,3.227,-6.92682,-26.12093,-16.47661
242,8.067,-2.260,8.548,3.130,-5.72928,-19.00986,-12.12491
243,8.100,-2.629,8.534,3.314,-8.74307,-8.25099,-9.70512
244,8.133,-3.232,9.150,3.300,-10.28295,6.46577,-11.42163
245,8.167,-2.684,8.954,2.864,-10.32711,15.97724,-5.40343
246,8.200,-1.924,9.202,2.446,-21.68436,17.76307,-2.67893
247,8.233,-1.881,10.120,2.071,-24.81641,20.35491,-2.74886
248,8.267,-1.848,10.586,2.043,-13.49409,27.69260,-6.62403
249,8.300,-1.669,10.062,1.835,-4.31008,29.28123,-8.76293
250,8.333,-1.739,9.815,1.584,-5.24302,28.39308,-4.69493
251,8.367,-1.339,9.997,1.426,-7.36284,26.90789,-3.24063
252,8.400,-1.555,10.171,1.372,-4.66925,24.84712,-4.38683
253,8.433,-1.376,10.151,1.214,2.07021,21.47567,-3.31550
254,8.467,-1.214,10.105,1.179,2.59598,18.21628,-1.68257
255,8.500,-1.174,10.402,1.181,0.82664,11.52512,3.13459
256,8.533,-0.628,10.463,1.059,-2.26447,4.34991,1.93070
257,8.567,-0.781,10.324,0.627,7.50753,-1.41856,-8.66478
258,8.600,-0.750,9.650,1.200,11.76972,3.78567,-21.35785
259,8.633,-1.188,8.907,1.671,-1.73038,8.17421,-31.75236
260,8.667,-1.623,9.724,1.785,3.84603,9.20278,-30.09699
261,8.700,-2.544,8.901,4.921,21.11836,29.17676,-25.98877
262,8.733,0.287,8.621,6.386,10.77443,33.95002,-14.23437
263,8.767,2.751,9.799,4.387,18.99137,10.19527,1.56447
264,8.800,0.599,11.497,3.824,30.27335,-3.75965,12.81592
265,8.833,-0.430,11.541,3.735,29.39236,10.11121,-9.62307
266,8.867,0.700,9.482,2.820,23.90582,8.64720,-16.60478
267,8.900,1.607,7.373,2.367,24.44936,8.01842,-0.63433
268,8.933,2.180,6.952,0.963,22.28607,-3.35360,11.59161
269,8.967,2.460,7.427,-0.172,17.63578,-13.42630,23.92732
270,9.000,2.277,6.637,-1.791,16.33740,-26.86969,40.87215
271,9.033,3.142,4.870,-0.787,9.43155,-65.51150,38.08806
272,9.067,2.290,10.665,7.454,-69.20242,-91.41586,43.42259
273,9.100,-18.232,19.613,12.043,-41.00636,-17.83967,-89.50882
274,9.133,1.134,10.793,-2.844,58.41410,61.53527,5.37510
275,9.167,0.488,5.699,11.094,22.01254,-10.18905,43.51085
276,9.200,-4.702,10.817,4.663,-55.85398,-48.30547,15.97415
277,9.233,-4.379,9.679,4.225,-9.75672,14.70473,25.15304
278,9.267,-1.299,6.736,3.904,-2.28074,3.75889,14.40214
279,9.300,-0.239,5.699,3.747,-9.62398,-15.72014,2.71983
280,9.333,-0.414,7.105,4.163,-4.44848,-20.69824,-0.36999
281,9.367,-1.732,8.832,4.181,-19.02697,-17.97841,-13.09287
282,9.400,-2.708,9.332,3.026,-15.17165,-15.82672,-17.17272
283,9.433,-2.619,8.432,3.298,-4.51430,-11.77375,-7.63330
284,9.467,-2.702,8.569,3.479,-10.52240,-6.92878,-3.79615
285,9.500,-2.851,9.012,3.126,-13.82952,1.24215,-1.21943
286,9.533,-1.686,8.864,2.842,-15.85042,3.19859,-2.02397
287,9.567,-1.754,8.967,2.857,-15.83039,0.90886,-3.82167
288,9.600,-2.056,9.103,2.667,-12.77463,2.02559,-7.79524
289,9.633,-2.308,9.410,2.580,-15.50380,5.48996,-9.34197
290,9.667,-1.727,9.701,2.545,-13.97237,3.77310,-5.85183
291,9.700,-1.561,9.322,2.217,-14.38564,-0.00481,-7.51230
292,9.733,-1.776,9.333,1.928,-15.87408,1.05982,-12.13732
293,9.767,-1.620,9.562,1.639,-16.12005,1.22356,-12.89471
294,9.800,-1.927,9.704,1.820,-15.84708,5.73606,-10.99790
295,9.833,-2.073,9.542,1.546,-13.61308,12.28738,-12.07132
296,9.867,-2.411,10.033,1.605,-9.78102,17.17584,-8.34513
297,9.900,-1.799,9.884,1.728,-3.04196,19.34372,-5.61276
298,9.933,-1.375,9.924,1.598,0.77034,18.59001,-5.63378
299,9.967,-1.451,10.294,1.395,6.96544,19.39762,-6.29270
300,10.000,-1.463,10.107,1.066,17.87385,21.05157,-5.45591
301,10.033,-1.153,9.802,1.462,20.31107,21.59865,-7.36847
302,10.067,-1.106,9.814,1.441,21.87010,21.05170,-8.58575
303,10.100,-0.907,10.083,1.917,16.70059,24.64022,-9.78006
304,10.133,-0.299,11.227,2.133,5.45732,15.47748,-6.02122
305,10.167,-0.552,10.368,1.938,21.67730,3.93946,-2.02854
306,10.200,-1.597,9.363,2.920,21.47707,10.19116,-12.07848
307,10.233,-0.104,9.116,3.238,14.63583,2.44963,-16.06119
308,10.267,0.896,9.351,3.215,18.11414,-4.68449,-15.21260
309,10.300,0.246,9.059,3.094,16.08087,1.60319,-20.69514
310,10.333,-0.832,8.685,4.433,14.11990,9.11310,-21.82426
311,10.367,-0.026,8.567,4.238,15.00440,14.41268,-11.50377
312,10.400,0.730,9.922,4.379,36.60530,5.09194,11.13526
313,10.433,0.829,11.766,4.845,34.89921,14.07117,6.39045
314,10.467,0.601,10.275,3.663,25.03382,27.20507,-6.88782
315,10.500,0.522,8.130,3.471,28.23532,27.02370,2.73892
316,10.533,1.441,8.120,1.785,18.96804,18.28069,10.06263
317,10.567,3.660,8.157,0.377,15.68959,-5.16902,18.02129
318,10.600,3.713,7.036,-1.013,20.45214,-41.91596,25.65166
319,10.633,5.102,4.634,-0.370,6.31574,-63.52700,29.98686
320,10.667,2.089,8.465,2.629,4.52185,-115.90732,33.54040
321,10.700,-15.638,19.018,17.601,-147.83525,-57.87074,-91.76293
322,10.733,-1.514,11.918,0.318,-13.21223,41.77652,-10.91196
323,10.767,0.512,6.705,10.260,48.93715,-7.66033,53.48463
324,10.800,2.480,9.740,7.693,18.76336,-68.86260,16.98473
325,10.833,2.480,9.740,7.693,18.76336,-68.86260,16.98473
326,10.867,2.480,9.740,7.693,18.76336,-68.86260,16.98473
327,10.900,2.480,9.740,7.693,18.76336,-68.86260,16.98473
328,10.933,2.480,9.740,7.693,18.76336,-68.86260,16.98473
329,10.967,2.480,9.740,7.693,18.76336,-68.86260,16.98473
330,11.000,2.480,9.740,7.693,18.76336,-68.86260,16.98473
331,11.033,2.480,9.740,7.693,18.76336,-68.86260,16.98473
332,11.067,2.480,9.740,7.693,18.76336,-68.86260,16.98473
333,11.100,2.480,9.740,7.693,18.76336,-68.86260,16.98473
334,11.133,2.480,9.740,7.693,18.76336,-68.86260,16.98473
335,11.167,2.480,9.740,7.693,18.76336,-68.86260,16.98473
336,11.200,2.480,9.740,7.693,18.76336,-68.86260,16.98473
337,11.233,2.480,9.740,7.693,18.76336,-68.86260,16.98473
338,11.267,2.480,9.740,7.693,18.76336,-68.86260,16.98473
339,11.300,2.480,9.740,7.693,18.76336,-68.86260,16.98473
340,11.333,2.480,9.740,7.693,18.76336,-68.86260,16.98473
341,11.367,2.480,9.740,7.693,18.76336,-68.86260,16.98473
342,11.400,2.480,9.740,7.693,18.76336,-68.86260,16.98473
343,11.433,2.480,9.740,7.693,18.76336,-68.86260,16.98473
344,11.467,2.480,9.740,7.693,18.76336,-68.86260,16.98473
345,11.500,2.480,9.740,7.693,18.76336,-68.86260,16.98473
346,11.533,2.480,9.740,7.693,18.76336,-68.86260,16.98473
347,11.567,2.480,9.740,7.693,18.76336,-68.86260,16.98473
348,11.600,2.480,9.740,7.693,18.76336,-68.86260,16.98473
349,11.633,2.480,9.740,7.693,18.76336,-68.86260,16.98473
350,11.667,2.480,9.740,7.693,18.76336,-68.86260,16.98473
351,11.700,2.480,9.740,7.693,18.76336,-68.86260,16.98473
352,11.733,2.480,9.740,7.693,18.76336,-68.86260,16.98473
353,11.767,2.480,9.740,7.693,18.76336,-68.86260,16.98473
354,11.800,2.480,9.740,7.693,18.76336,-68.86260,16.98473
355,11.833,2.480,9.740,7.693,18.76336,-68.86260,16.98473
356,11.867,2.480,9.740,7.693,18.76336,-68.86260,16.98473
357,11.900,2.480,9.740,7.693,18.76336,-68.86260,16.98473
358,11.933,2.480,9.740,7.693,18.76336,-68.86260,16.98473
359,11.967,2.480,9.740,7.693,18.76336,-68.86260,16.98473
360,12.000,2.480,9.740,7.693,18.76336,-68.86260,16.98473
361,12.033,2.480,9.740,7.693,18.76336,-68.86260,16.98473
362,12.067,2.480,9.740,7.693,18.76336,-68.86260,16.98473
363,12.100,2.480,9.740,7.693,18.76336,-68.86260,16.98473
364,12.133,2.480,9.740,7.693,18.76336,-68.86260,16.98473
365,12.167,2.480,9.740,7.693,18.76336,-68.86260,16.98473
366,12.200,2.480,9.740,7.693,18.76336,-68.86260,16.98473
367,12.233,2.480,9.740,7.693,18.76336,-68.86260,16.98473
368,12.267,2.480,9.740,7.693,18.76336,-68.86260,16.98473
369,12.300,2.480,9.740,7.693,18.76336,-68.86260,16.98473
370,12.333,2.480,9.740,7.693,18.76336,-68.86260,16.98473
371,12.367,2.480,9.740,7.693,18.76336,-68.86260,16.98473
372,12.400,2.480,9.740,7.693,18.76336,-68.86260,16.98473
373,12.433,2.480,9.740,7.693,18.76336,-68.86260,16.98473
374,12.467,2.480,9.740,7.693,18.76336,-68.86260,16.98473
375,12.500,2.480,9.740,7.693,18.76336,-68.86260,16.98473
376,12.533,2.480,9.740,7.693,18.76336,-68.86260,16.98473
377,12.567,2.480,9.740,7.693,18.76336,-68.86260,16.98473
378,12.600,2.480,9.740,7.693,18.76336,-68.86260,16.98473
379,12.633,2.480,9.740,7.693,18.76336,-68.86260,16.98473
380,12.667,2.480,9.740,7.693,18.76336,-68.86260,16.98473
381,12.700,2.480,9.740,7.693,18.76336,-68.86260,16.98473
382,12.733,2.480,9.740,7.693,18.76336,-68.86260,16.98473
383,12.767,2.480,9.740,7.693,18.76336,-68.86260,16.98473
384,12.800,2.480,9.740,7.693,18.76336,-68.86260,16.98473
385,12.833,2.480,9.740,7.693,18.76336,-68.86260,16.98473
386,12.867,2.480,9.740,7.693,18.76336,-68.86260,16.98473
387,12.900,2.480,9.740,7.693,18.76336,-68.86260,16.98473
388,12.933,2.480,9.740,7.693,18.76336,-68.86260,16.98473
389,12.967,2.480,9.740,7.693,18.76336,-68.86260,16.98473
390,13.000,2.480,9.740,7.693,18.76336,-68.86260,16.98473
391,13.033,2.480,9.740,7.693,18.76336,-68.86260,16.98473
392,13.067,2.480,9.740,7.693,18.76336,-68.86260,16.98473
393,13.100,2.480,9.740,7.693,18.76336,-68.86260,16.98473
394,13.133,2.480,9.740,7.693,18.76336,-68.86260,16.98473
395,13.167,2.480,9.740,7.693,18.76336,-68.86260,16.98473
396,13.200,2.480,9.740,7.693,18.76336,-68.86260,16.98473
397,13.233,2.480,9.740,7.693,18.76336,-68.86260,16.98473
398,13.267,2.480,9.740,7.693,18.76336,-68.86260,16.98473
399,13.300,2.480,9.740,7.693,18.76336,-68.86260,16.98473
400,13.333,2.480,9.740,7.693,18.76336,-68.86260,16.98473
401,13.367,2.480,9.740,7.693,18.76336,-68.86260,16.98473
402,13.400,2.480,9.740,7.693,18.76336,-68.86260,16.98473
403,13.433,2.480,9.740,7.693,18.76336,-68.86260,16.98473
404,13.467,2.480,9.740,7.693,18.76336,-68.86260,16.98473
405,13.500,2.480,9.740,7.693,18.76336,-68.86260,16.98473
406,13.533,2.480,9.740,7.693,18.76336,-68.86260,16.98473
407,13.567,2.480,9.740,7.693,18.76336,-68.86260,16.98473
408,13.600,2.480,9.740,7.693,18.76336,-68.86260,16.98473
409,13.633,2.480,9.740,7.693,18.76336,-68.86260,16.98473
410,13.667,2.480,9.740,7.693,18.76336,-68.86260,16.98473
411,13.700,2.480,9.740,7.693,18.76336,-68.86260,16.98473
412,13.733,2.480,9.740,7.693,18.76336,-68.86260,16.98473
413,13.767,2.480,9.740,7.693,18.76336,-68.86260,16.98473
414,13.800,2.480,9.740,7.693,18.76336,-68.86260,16.98473
415,13.833,2.480,9.740,7.693,18.76336,-68.86260,16.98473
416,13.867,2.480,9.740,7.693,18.76336,-68.86260,16.98473
417,13.900,2.480,9.740,7.693,18.76336,-68.86260,16.98473
418,13.933,2.480,9.740,7.693,18.76336,-68.86260,16.98473
419,13.967,2.480,9.740,7.693,18.76336,-68.86260,16.98473
420,14.000,2.480,9.740,7.693,18.76336,-68.86260,16.98473
421,14.033,2.480,9.740,7.693,18.76336,-68.86260,16.98473
422,14.067,2.480,9.740,7.693,18.76336,-68.86260,16.98473
423,14.100,2.480,9.740,7.693,18.76336,-68.86260,16.98473
424,14.133,2.480,9.740,7.693,18.76336,-68.86260,16.98473
425,14.167,2.480,9.740,7.693,18.76336,-68.86260,16.98473
426,14.200,2.480,9.740,7.693,18.76336,-68.86260,16.98473
427,14.233,2.480,9.740,7.693,18.76336,-68.86260,16.98473
428,14.267,2.480,9.740,7.693,18.76336,-68.86260,16.98473
429,14.300,2.480,9.740,7.693,18.76336,-68.86260,16.98473
430,14.333,2.480,9.740,7.693,18.76336,-68.86260,16.98473
431,14.367,2.480,9.740,7.693,18.76336,-68.86260,16.98473
432,14.400,2.480,9.740,7.693,18.76336,-68.86260,16.98473
433,14.433,2.480,9.740,7.693,18.76336,-68.86260,16.98473
434,14.467,2.480,9.740,7.693,18.76336,-68.86260,16.98473
435,14.500,2.480,9.740,7.693,18.76336,-68.86260,16.98473
436,14.533,2.480,9.740,7.693,18.76336,-68.86260,16.98473
437,14.567,2.480,9.740,7.693,18.76336,-68.86260,16.98473
438,14.600,2.480,9.740,7.693,18.76336,-68.86260,16.98473
439,14.633,2.480,9.740,7.693,18.76336,-68.86260,16.98473
440,14.667,2.480,9.740,7.693,18.76336,-68.86260,16.98473
441,14.700,2.480,9.740,7.693,18.76336,-68.86260,16.98473
442,14.733,2.480,9.740,7.693,18.76336,-68.86260,16.98473
443,14.767,2.480,9.740,7.693,18.76336,-68.86260,16.98473
444,14.800,2.480,9.740,7.693,18.76336,-68.86260,16.98473
445,14.833,2.480,9.740,7.693,18.76336,-68.86260,16.98473
446,14.867,2.480,9.740,7.693,18.76336,-68.86260,16.98473
447,14.900,2.480,9.740,7.693,18.76336,-68.86260,16.98473
448,14.933,2.480,9.740,7.693,18.76336,-68.86260,16.98473
449,14.967,2.480,9.740,7.693,18.76336,-68.86260,16.98473
450,15.000,2.480,9.740,7.693,18.76336,-68.86260,16.98473
451,15.033,2.480,9.740,7.693,18.76336,-68.86260,16.98473
452,15.067,2.480,9.740,7.693,18.76336,-68.86260,16.98473
453,15.100,2.480,9.740,7.693,18.76336,-68.86260,16.98473
454,15.133,2.480,9.740,7.693,18.76336,-68.86260,16.98473
455,15.167,2.480,9.740,7.693,18.76336,-68.86260,16.98473
456,15.200,2.480,9.740,7.693,18.76336,-68.86260,16.98473
457,15.233,2.480,9.740,7.693,18.76336,-68.86260,16.98473
458,15.267,2.480,9.740,7.693,18.76336,-68.86260,16.98473
459,15.300,2.480,9.740,7.693,18.76336,-68.86260,16.98473
460,15.333,2.480,9.740,7.693,18.76336,-68.86260,16.98473
461,15.367,2.480,9.740,7.693,18.76336,-68.86260,16.98473
462,15.400,2.480,9.740,7.693,18.76336,-68.86260,16.98473
463,15.433,2.480,9.740,7.693,18.76336,-68.86260,16.98473
464,15.467,2.480,9.740,7.693,18.76336,-68.86260,16.98473
465,15.500,2.480,9.740,7.693,18.76336,-68.86260,16.98473
466,15.533,2.480,9.740,7.693,18.76336,-68.86260,16.98473
467,15.567,2.480,9.740,7.693,18.76336,-68.86260,16.98473
468,15.600,2.480,9.740,7.693,18.76336,-68.86260,16.98473
469,15.633,2.480,9.740,7.693,18.76336,-68.86260,16.98473
470,15.667,2.480,9.740,7.693,18.76336,-68.86260,16.98473
471,15.700,2.480,9.740,7.693,18.76336,-68.86260,16.98473
472,15.733,2.480,9.740,7.693,18.76336,-68.86260,16.98473
473,15.767,2.480,9.740,7.693,18.76336,-68.86260,16.98473
474,15.800,2.480,9.740,7.693,18.76336,-68.86260,16.98473
475,15.833,2.480,9.740,7.693,18.76336,-68.86260,16.98473
476,15.867,2.480,9.740,7.693,18.76336,-68.86260,16.98473
477,15.900,2.480,9.740,7.693,18.76336,-68.86260,16.98473
478,15.933,2.480,9.740,7.693,18.76336,-68.86260,16.98473
479,15.967,2.480,9.740,7.693,18.76336,-68.86260,16.98473
480,16.000,2.480,9.740,7.693,18.76336,-68.86260,16.98473
481,16.033,2.480,9.740,7.693,18.76336,-68.86260,16.98473
482,16.067,2.480,9.740,7.693,18.76336,-68.86260,16.98473
483,16.100,2.480,9.740,7.693,18.76336,-68.86260,16.98473
484,16.133,2.480,9.740,7.693,18.76336,-68.86260,16.98473
485,16.167,2.480,9.740,7.693,18.76336,-68.86260,16.98473
486,16.200,2.480,9.740,7.693,18.76336,-68.86260,16.98473
487,16.233,2.480,9.740,7.693,18.76336,-68.86260,16.98473
488,16.267,2.480,9.740,7.693,18.76336,-68.86260,16.98473
489,16.300,2.480,9.740,7.693,18.76336,-68.86260,16.98473
490,16.333,2.480,9.740,7.693,18.76336,-68.86260,16.98473
491,16.367,2.480,9.740,7.693,18.76336,-68.86260,16.98473
492,16.400,2.480,9.740,7.693,18.76336,-68.86260,16.98473
493,16.433,2.480,9.740,7.693,18.76336,-68.86260,16.98473
494,16.467,2.480,9.740,7.693,18.76336,-68.86260,16.98473
495,16.500,2.480,9.740,7.693,18.76336,-68.86260,16.98473
496,16.533,2.480,9.740,7.693,18.76336,-68.86260,16.98473
497,16.567,2.480,9.740,7.693,18.76336,-68.86260,16.98473
498,16.600,2.480,9.740,7.693,18.76336,-68.86260,16.98473
499,16.633,2.480,9.740,7.693,18.76336,-68.86260,16.98473
500,16.667,2.480,9.740,7.693,18.76336,-68.86260,16.98473
501,16.700,2.480,9.740,7.693,18.76336,-68.86260,16.98473
502,16.733,2.480,9.740,7.693,18.76336,-68.86260,16.98473
503,16.767,2.480,9.740,7.693,18.76336,-68.86260,16.98473
504,16.800,2.480,9.740,7.693,18.76336,-68.86260,16.98473
505,16.833,2.480,9.740,7.693,18.76336,-68.86260,16.98473
506,16.867,2.480,9.740,7.693,18.76336,-68.86260,16.98473
507,16.900,2.480,9.740,7.693,18.76336,-68.86260,16.98473
508,16.933,2.480,9.740,7.693,18.76336,-68.86260,16.98473
509,16.967,2.480,9.740,7.693,18.76336,-68.86260,16.98473
510,17.000,2.480,9.740,7.693,18.76336,-68.86260,16.98473
511,17.033,2.480,9.740,7.693,18.76336,-68.86260,16.98473
512,17.067,2.480,9.740,7.693,18.76336,-68.86260,16.98473
513,17.100,2.480,9.740,7.693,18.76336,-68.86260,16.98473
514,17.133,2.480,9.740,7.693,18.76336,-68.86260,16.98473
515,17.167,2.480,9.740,7.693,18.76336,-68.86260,16.98473
516,17.200,2.480,9.740,7.693,18.76336,-68.86260,16.98473
517,17.233,2.480,9.740,7.693,18.76336,-68.86260,16.98473
518,17.267,2.480,9.740,7.693,18.76336,-68.86260,16.98473
519,17.300,2.480,9.740,7.693,18.76336,-68.86260,16.98473
520,17.333,2.480,9.740,7.693,18.76336,-68.86260,16.98473
521,17.367,2.480,9.740,7.693,18.76336,-68.86260,16.98473
522,17.400,2.480,9.740,7.693,18.76336,-68.86260,16.98473
523,17.433,2.480,9.740,7.693,18.76336,-68.86260,16.98473
524,17.467,2.480,9.740,7.693,18.76336,-68.86260,16.98473
525,17.500,2.480,9.740,7.693,18.76336,-68.86260,16.98473
526,17.533,2.480,9.740,7.693,18.76336,-68.86260,16.98473
527,17.567,2.480,9.740,7.693,18.76336,-68.86260,16.98473
528,17.600,2.480,9.740,7.693,18.76336,-68.86260,16.98473
529,17.633,2.480,9.740,7.693,18.76336,-68.86260,16.98473
530,17.667,2.480,9.740,7.693,18.76336,-68.86260,16.98473
531,17.700,2.480,9.740,7.693,18.76336,-68.86260,16.98473
532,17.733,2.480,9.740,7.693,18.76336,-68.86260,16.98473
533,17.767,2.480,9.740,7.693,18.76336,-68.86260,16.98473
