frame_number,sync_timestamp,accel_x,accel_y,accel_z,gyro_x,gyro_y,gyro_z
0,0.000,-0.012,9.577,3.115,3.22901,2.90840,-0.61069
1,0.033,0.034,9.491,3.219,2.73535,3.24178,-0.45802
2,0.067,0.109,9.490,3.345,2.30785,3.06106,-0.47839
3,0.100,0.048,9.799,3.431,2.30533,2.35879,-0.44275
4,0.133,0.046,9.582,3.312,3.11449,1.91346,-0.43000
5,0.167,0.112,9.440,3.335,2.10685,1.05333,-0.18577
6,0.200,0.014,9.416,3.242,2.03815,0.78626,-0.56485
7,0.233,-0.002,9.511,3.341,1.42223,0.86257,-0.41732
8,0.267,0.088,9.546,3.365,0.26976,0.56737,-0.52677
9,0.300,-0.110,9.637,3.342,0.92371,0.37404,-0.30535
10,0.333,0.031,9.542,3.352,0.95179,0.15775,0.02805
11,0.367,0.117,9.466,3.445,1.08643,0.14502,-0.26213
12,0.400,0.012,9.538,3.390,0.71805,-0.35695,-0.10753
13,0.433,0.071,9.570,3.329,1.87536,-0.93131,0.05597
14,0.467,-0.077,9.432,3.480,0.82454,-2.74285,-0.32314
15,0.500,-0.081,9.342,3.316,2.69479,-4.41225,-1.93140
16,0.533,-0.238,9.270,3.248,3.22935,-4.52413,-4.23934
17,0.567,-0.378,9.737,3.297,1.26473,-4.17313,-4.92120
18,0.600,-0.713,9.716,2.993,3.12212,-1.19792,-6.44293
19,0.633,-0.765,9.403,2.884,-0.27033,3.56795,-6.42475
20,0.667,-0.331,9.494,2.787,-2.10934,4.32291,-6.15531
21,0.700,-0.081,9.479,3.151,-2.78631,-0.97751,-6.86274
22,0.733,0.291,9.677,3.169,-2.53434,-4.71061,-7.73308
23,0.767,0.185,9.378,3.268,-2.20638,-6.75523,-9.19623
24,0.800,0.132,8.973,3.278,-2.31279,-1.11380,-10.16012
25,0.833,-0.160,9.081,3.746,1.45391,5.14353,-5.30943
26,0.867,0.370,9.006,3.385,11.53324,9.17557,4.87955
27,0.900,1.604,9.306,3.476,7.86178,1.00678,14.32028
28,0.933,3.053,10.961,3.461,-1.80405,-6.49079,-0.89409
29,0.967,1.100,10.365,3.073,-3.61303,-8.71813,-11.95381
30,1.000,-0.000,9.982,2.686,-4.73257,1.82504,-7.28887
31,1.033,1.388,11.429,2.349,3.53029,16.29509,-1.11102
32,1.067,1.801,10.608,1.987,10.10142,3.51740,7.94441
33,1.100,2.490,9.395,1.956,0.99953,-7.13782,2.59501
34,1.133,2.126,9.330,0.844,-1.13162,-19.34151,1.73486
35,1.167,0.915,9.519,3.042,15.21823,-10.96817,8.84210
36,1.200,-1.365,10.094,5.195,5.64111,3.41178,0.97605
37,1.233,-1.667,8.273,4.825,2.73301,11.41608,4.29216
38,1.267,-0.127,8.251,5.634,3.34532,14.24239,13.46841
39,1.300,0.390,8.159,6.029,-5.58917,3.64075,11.90055
40,1.333,-0.615,8.316,5.600,-9.45836,4.71406,11.54175
41,1.367,-0.891,8.839,4.932,-11.32610,3.42782,10.11171
42,1.400,-1.146,10.847,4.777,-2.18230,3.70250,5.88636
43,1.433,-1.117,11.818,4.453,11.65155,-7.92020,9.70907
44,1.467,-0.303,10.197,3.471,26.41761,-18.93037,9.44114
45,1.500,-0.845,10.063,2.739,32.39686,-25.80148,-2.51154
46,1.533,-2.343,9.974,1.387,35.39629,-20.55672,-10.39413
47,1.567,-2.862,8.042,1.378,36.25110,-8.06491,-12.90103
48,1.600,-2.907,6.735,1.683,4.12083,15.40561,-17.08427
49,1.633,-2.283,6.978,1.680,-19.64740,38.62281,-25.49439
50,1.667,-1.392,8.911,3.860,-21.86102,57.13822,-26.30455
51,1.700,3.196,12.871,5.911,-9.83918,18.38706,6.21405
52,1.733,2.822,9.961,5.203,-7.53756,-8.89076,-4.35295
53,1.767,-0.402,9.027,5.970,-13.34605,-13.59542,-9.49109
54,1.800,-0.098,8.468,6.009,-5.51900,2.43541,1.27515
55,1.833,1.327,7.014,5.757,1.91245,13.35287,3.99968
56,1.867,1.884,7.870,5.027,-5.90259,7.20624,0.25121
57,1.900,2.066,11.449,4.424,2.43516,-2.32858,-9.09138
58,1.933,2.108,11.253,3.237,12.49755,-0.34837,-8.45525
59,1.967,1.223,10.199,3.775,23.89691,0.40734,-2.34040
60,2.000,0.651,10.017,2.607,12.71675,6.29789,3.57301
61,2.033,2.055,10.017,2.274,6.02773,4.86709,6.76342
62,2.067,2.559,8.515,2.094,-0.22666,-3.61376,10.25461
63,2.100,2.136,7.389,2.303,-12.35806,-15.87699,14.32797
64,2.133,2.080,6.661,1.791,-24.81983,-28.79972,19.46633
65,2.167,1.911,6.444,2.962,-29.46336,-28.34751,19.70687
66,2.200,-3.708,14.804,8.916,-30.76787,2.89257,-4.04349
67,2.233,-2.256,9.425,2.601,-24.69070,-1.18954,-1.90152
68,2.267,-0.315,10.287,5.817,-25.72215,29.90719,8.17990
69,2.300,-0.180,12.553,4.891,1.30953,3.66651,3.65650
70,2.333,-0.488,8.767,5.420,10.97858,-7.94931,4.31556
71,2.367,-0.908,9.442,4.662,-4.07379,-9.38676,-0.03818
72,2.400,-1.599,9.999,4.230,3.40296,-12.81633,4.37103
73,2.433,-1.369,8.539,4.374,9.59023,-11.15514,8.67668
74,2.467,-1.238,7.997,4.571,9.67449,-8.27803,3.17167
75,2.500,-0.725,8.576,4.061,10.45063,-6.53439,-3.17533
76,2.533,-1.191,8.516,4.055,5.67950,-8.89592,-4.84737
77,2.567,-1.781,8.606,3.880,5.33801,-5.88732,-9.42034
78,2.600,-2.689,8.277,2.579,5.63356,-1.03835,-10.77862
79,2.633,-2.347,8.246,1.651,1.11535,15.26518,-14.00338
80,2.667,-1.678,7.213,0.649,7.40609,23.02681,-23.71073
81,2.700,-3.024,6.189,1.499,-19.27610,42.67312,-30.22833
82,2.733,2.634,15.279,7.642,-40.77804,65.06164,-0.62532
83,2.767,4.583,11.184,2.783,3.59871,-22.31250,7.53701
84,2.800,-1.204,11.914,3.768,-6.21376,-17.58006,-15.06108
85,2.833,0.801,10.419,3.720,-22.99495,-4.52516,-17.84352
86,2.867,1.206,7.529,4.367,12.53836,12.96921,-10.26728
87,2.900,1.053,4.652,5.162,0.54188,4.63385,-9.15254
88,2.933,-0.200,6.164,5.002,-2.25898,18.28606,-0.88963
89,2.967,0.928,11.046,5.643,1.44790,25.35844,10.63905
90,3.000,2.684,11.566,4.503,2.09963,9.25134,5.50366
91,3.033,0.426,10.021,3.705,4.02251,6.34510,0.10504
92,3.067,0.581,12.010,2.036,4.52196,18.95169,8.40062
93,3.100,2.420,11.325,0.677,20.14248,19.49665,15.96849
94,3.133,3.033,8.321,1.693,12.14760,5.39525,16.32066
95,3.167,2.299,6.333,0.885,-8.26095,-11.44858,17.04082
96,3.200,3.419,6.065,1.214,-22.17563,-29.84741,20.38934
97,3.233,3.179,6.445,2.853,-26.00780,-35.27624,19.26110
98,3.267,-3.916,15.100,11.082,-17.09422,-6.24781,-12.32815
99,3.300,-2.023,10.621,3.575,-19.09152,-16.92358,-15.67171
100,3.333,-1.136,11.952,7.588,-11.90626,22.24607,2.71990
101,3.367,-1.540,12.996,4.049,15.15010,-5.34669,5.88594
102,3.400,-0.743,9.926,5.759,24.32321,-4.50854,9.21354
103,3.433,-0.425,8.601,3.695,7.40664,-18.15990,7.22936
104,3.467,-0.618,7.440,2.764,7.00773,-26.35635,3.69936
105,3.500,-0.314,7.254,3.136,15.09216,-27.40461,0.41968
106,3.533,-1.074,8.187,3.888,20.49239,-28.03500,-2.20386
107,3.567,-2.190,9.510,3.317,-6.60283,-19.98722,-5.33597
108,3.600,-2.677,9.739,1.379,-10.92898,-9.51082,-9.28236
109,3.633,-2.260,8.170,3.155,-1.10903,-4.29410,-8.12453
110,3.667,-1.431,7.116,2.705,-19.78567,6.14891,-16.33718
111,3.700,-1.341,6.876,1.827,-28.93136,11.92376,-22.91606
112,3.733,-1.874,6.602,2.096,-26.33402,22.41361,-24.01269
113,3.767,-2.144,11.257,6.056,4.48483,30.80725,-4.97166
114,3.800,5.149,15.824,5.159,-27.44907,-0.47040,-2.88802
115,3.833,0.991,13.470,4.007,7.94020,-8.64904,-18.10040
116,3.867,-0.387,12.409,5.024,7.99262,5.68657,-14.86729
117,3.900,1.682,9.379,3.362,22.03688,22.76452,-12.98735
118,3.933,1.826,7.152,4.860,22.21567,10.67759,-11.46202
119,3.967,1.450,6.346,5.116,12.60066,5.52891,-11.29080
120,4.000,1.471,6.134,4.902,6.72631,6.15052,-6.81657
121,4.033,0.790,7.395,4.401,4.60866,9.54353,-0.17693
122,4.067,1.132,10.583,3.664,6.50717,9.36550,6.58720
123,4.100,2.196,11.586,3.222,11.74925,2.00362,8.54979
124,4.133,2.188,10.586,2.686,12.72998,2.35269,6.94298
125,4.167,1.892,10.274,2.194,9.95239,2.55032,11.86036
126,4.200,1.489,8.643,2.193,9.98773,2.45729,20.39344
127,4.233,2.259,7.110,2.027,0.20139,-4.44277,21.62608
128,4.267,2.649,5.195,1.603,-19.71648,-26.47830,22.82594
129,4.300,3.050,4.157,0.644,-38.46969,-45.62144,22.16882
130,4.333,-1.076,11.298,9.779,-67.22198,24.22713,-23.48340
131,4.367,-3.440,14.620,6.825,-92.85594,-20.87896,-7.95063
132,4.400,-2.167,11.150,3.382,11.37894,32.06460,6.84814
133,4.433,-0.664,11.413,7.613,-2.48213,-0.17951,4.34052
134,4.467,-1.084,9.395,4.144,9.68591,-19.28925,8.06197
135,4.500,-1.377,7.908,5.154,-4.72410,1.62017,6.43823
136,4.533,-1.867,8.048,4.147,-15.27995,0.17781,13.01746
137,4.567,-0.609,7.584,4.352,5.99934,-1.18317,7.08401
138,4.600,0.642,8.502,4.407,3.81599,-10.98043,1.71874
139,4.633,-0.057,9.897,3.279,11.67265,-22.80870,-3.77219
140,4.667,-1.535,10.093,2.543,15.04307,-20.46028,-6.81766
141,4.700,-1.870,10.261,2.226,16.72030,-15.55658,-8.88351
142,4.733,-2.078,10.855,1.536,15.17178,-8.01674,-15.90915
143,4.767,-1.768,9.078,1.668,15.44813,-0.51914,-16.18075
144,4.800,-1.241,7.467,1.066,-5.60470,5.89942,-18.23099
145,4.833,-2.332,6.134,1.200,-14.42314,23.44703,-26.60496
146,4.867,-1.895,5.028,2.539,-30.73774,47.56852,-28.72127
147,4.900,2.796,11.981,7.996,-4.80708,39.46080,11.28336
148,4.933,3.014,14.492,4.832,-23.45677,-15.76343,-5.18848
149,4.967,-2.450,11.601,3.844,-27.27432,-12.06562,-18.60861
150,5.000,-0.040,11.572,4.096,1.07198,11.97988,-4.52884
151,5.033,1.902,9.540,4.530,25.34667,1.51112,2.40817
152,5.067,2.097,7.856,4.737,8.70119,2.86393,-10.52543
153,5.100,1.289,7.740,3.737,2.77181,4.35122,-5.62101
154,5.133,0.331,8.571,3.424,7.98511,6.71067,-0.27170
155,5.167,1.082,10.424,2.420,21.21800,10.68484,10.53947
156,5.200,1.622,10.980,2.632,26.25468,4.87821,15.60751
157,5.233,2.708,10.819,1.862,17.86062,3.47285,11.74798
158,5.267,2.304,9.827,1.826,11.03041,0.14357,12.36610
159,5.300,1.459,8.116,2.118,4.80230,-8.24692,13.14493
160,5.333,1.789,7.074,2.262,-9.35897,-11.32652,13.26440
161,5.367,2.054,6.590,2.084,-12.16630,-15.66692,16.78893
162,5.400,2.791,6.517,3.675,-16.47413,-15.46018,9.83895
163,5.433,-3.279,11.206,9.136,-41.34979,-10.17243,-15.98019
164,5.467,-2.275,10.463,4.535,-20.64139,-8.80706,2.17155
165,5.500,-0.349,11.075,5.970,-9.84421,12.53436,14.20410
166,5.533,-1.877,13.134,4.276,-1.30618,-1.38391,4.65566
167,5.567,-1.851,11.998,4.611,23.87846,1.17734,-0.95714
168,5.600,-1.050,10.480,4.089,12.33798,-4.33024,2.23660
169,5.633,-1.043,9.236,3.197,18.51668,-11.06832,7.55413
170,5.667,-0.704,8.479,3.135,21.22082,-15.42649,5.04346
171,5.700,-0.659,7.740,3.235,21.88499,-17.71477,0.16269
172,5.733,-0.972,7.811,3.262,11.97328,-16.54856,-2.48117
173,5.767,-1.476,8.388,3.065,8.32915,-14.71930,-2.27997
174,5.800,-1.932,8.555,2.967,4.98914,-13.17231,-6.28772
175,5.833,-2.177,7.643,2.696,-5.37716,-3.77069,-15.94485
176,5.867,-1.378,7.379,3.074,-21.41377,5.37896,-16.77123
177,5.900,-1.347,7.113,2.263,-29.62096,9.93410,-22.09603
178,5.933,-2.498,6.906,1.390,-30.52699,19.35182,-21.20610
179,5.967,-3.529,8.922,5.160,-25.43520,60.85151,-19.32923
180,6.000,7.391,19.418,8.465,-6.80079,20.85244,18.02669
181,6.033,1.808,11.602,3.859,19.08215,-11.39305,-13.23571
182,6.067,-0.176,11.257,5.571,-2.43532,0.32927,-7.87890
183,6.100,1.365,10.921,3.455,22.14580,14.49210,-4.80878
184,6.133,1.532,7.305,4.984,19.14099,7.88490,-4.41738
185,6.167,1.339,5.602,4.631,2.48666,13.45389,-1.07087
186,6.200,1.364,5.734,4.245,-2.56504,5.91866,1.65710
187,6.233,1.284,6.721,3.521,-12.66336,8.90266,2.69592
188,6.267,1.031,9.939,3.164,-4.63429,6.00513,11.58002
189,6.300,1.550,12.944,3.325,7.15497,3.17777,21.68313
190,6.333,1.730,12.061,1.571,14.46883,-0.89192,19.69237
191,6.367,1.561,10.134,2.163,0.48873,0.86117,12.11843
192,6.400,0.931,8.936,1.168,-4.16795,1.94846,17.16474
193,6.433,1.407,6.916,1.159,-7.54656,-5.62783,23.23337
194,6.467,2.651,5.729,2.060,-24.95475,-8.09096,16.50923
195,6.500,0.463,8.632,7.853,-46.20749,7.65541,-5.36681
196,6.533,-4.123,11.652,6.514,-24.13329,-13.64828,-11.67012
197,6.567,-1.769,10.983,5.559,-12.77331,12.01810,1.43772
198,6.600,-0.540,13.898,5.390,-7.52078,6.72172,1.99192
199,6.633,-1.515,11.618,5.024,25.00811,-2.01392,-0.48505
200,6.667,-1.522,9.287,3.803,16.01358,-11.51213,8.03648
201,6.700,-0.893,8.974,2.210,12.79159,-13.37641,5.53660
202,6.733,-0.259,7.985,2.506,20.91574,-18.12113,-1.15994
203,6.767,-0.967,7.782,2.786,14.85165,-19.64448,-6.30486
204,6.800,-1.842,8.455,2.238,14.18965,-11.92519,-6.81390
205,6.833,-2.248,9.138,2.747,11.99641,-5.06907,-8.62847
206,6.867,-1.547,9.045,2.405,5.78542,-1.65448,-14.01750
207,6.900,-1.616,7.601,2.425,-7.29734,7.71093,-20.30285
208,6.933,-1.659,7.837,2.342,-17.87126,13.42335,-16.25798
209,6.967,-1.143,8.011,1.715,-16.81964,11.74326,-14.48316
210,7.000,-1.211,6.685,2.536,-28.39078,1.53134,-19.40506
211,7.033,-1.958,8.263,5.592,-45.71714,28.47577,-17.91837
212,7.067,5.932,18.250,7.044,-18.10844,-5.14390,11.44145
213,7.100,-0.188,13.105,4.329,-0.74303,-18.91923,-5.77172
214,7.133,-0.784,11.430,5.487,17.22243,-7.18973,-3.37108
215,7.167,1.362,9.748,4.355,19.26846,-2.56464,0.09933
216,7.200,1.934,7.499,4.551,19.28918,-5.75090,-13.63213
217,7.233,1.344,5.774,4.344,9.68288,-0.80041,-15.43258
218,7.267,0.484,6.108,3.904,-4.12133,5.58169,-7.77042
219,7.300,0.337,7.936,3.501,-3.85307,10.24449,-5.47228
220,7.333,0.139,10.073,4.181,9.70177,13.44885,4.33020
221,7.367,1.044,11.366,4.348,9.37932,8.88161,7.48315
222,7.400,2.263,11.612,2.830,-1.45588,8.99924,3.19820
223,7.433,1.453,10.776,2.253,6.58750,8.99145,8.28740
224,7.467,0.888,8.907,2.484,12.39767,12.57569,11.85988
225,7.500,1.110,7.235,2.434,11.58508,7.57189,16.99160
226,7.533,2.564,6.526,1.716,-8.83818,-4.33931,11.08834
227,7.567,3.271,4.977,0.772,-25.34320,-17.12635,14.31219
228,7.600,1.891,8.157,4.923,-53.33116,18.56730,-1.82244
229,7.633,-9.493,13.338,12.382,-49.93309,-39.49370,-31.33523
230,7.667,-2.493,10.937,4.001,1.43464,5.78248,12.83544
231,7.700,1.097,14.267,6.231,-3.74489,3.69589,10.12718
232,7.733,-0.308,11.821,4.135,32.54518,-20.04775,2.63340
233,7.767,-1.210,8.721,4.513,21.11888,-13.69431,0.48085
234,7.800,-1.836,7.788,3.410,-2.23289,-4.67549,11.40654
235,7.833,-1.645,7.240,3.493,14.60449,-7.71987,16.43230
236,7.867,-0.478,6.410,3.634,10.92939,-10.72525,12.61819
237,7.900,0.241,7.738,3.206,5.75172,-14.17757,7.69744
238,7.933,-0.230,10.893,2.809,11.54237,-20.78678,-4.76227
239,7.967,-1.795,12.180,2.569,11.13276,-16.97601,-12.69459
240,8.000,-3.293,10.066,2.520,21.38774,-9.49453,-13.74695
241,8.033,-2.265,8.738,2.374,9.56945,0.41734,-9.21193
242,8.067,-1.124,7.395,1.529,-4.17853,3.41319,-10.61788
243,8.100,-1.538,5.576,1.289,-13.32179,12.25263,-13.01030
244,8.133,-2.246,4.559,1.184,-30.13530,22.54824,-18.71463
245,8.167,-2.681,6.751,5.445,-41.68639,71.20083,-15.99457
246,8.200,11.292,19.613,9.298,-25.90302,-14.91245,33.28963
247,8.233,0.734,12.141,4.833,-4.83134,-32.22867,-30.08076
248,8.267,-1.877,12.335,4.995,-23.78367,0.68062,-12.93215
249,8.300,1.242,10.204,4.010,29.98059,22.58975,-2.13670
250,8.333,1.446,7.338,5.802,23.49650,8.59746,-5.89556
251,8.367,1.668,6.911,3.943,3.05759,5.84871,-13.90484
252,8.400,0.794,7.529,4.502,8.62483,9.59820,-2.46656
253,8.433,0.842,7.111,4.357,11.96127,9.60103,-3.05742
254,8.467,0.001,8.628,3.956,9.53638,7.78614,-3.72417
255,8.500,0.329,10.449,3.273,12.90196,18.92945,5.40707
256,8.533,1.121,11.461,2.872,16.77252,21.77624,10.62560
257,8.567,2.360,9.821,2.788,9.49364,16.75599,8.03881
258,8.600,1.931,8.227,1.418,-2.87138,11.07814,10.15868
259,8.633,1.802,6.621,1.647,-6.28367,6.00065,21.00550
260,8.667,2.571,5.433,1.139,-18.79104,-24.47009,34.16962
261,8.700,3.724,5.809,0.603,-29.54491,-33.52983,38.02727
262,8.733,-0.477,13.723,10.457,-64.71942,28.24858,-8.79035
263,8.767,-4.368,13.558,2.218,-38.96547,-28.84994,-6.74247
264,8.800,-1.081,11.427,3.094,25.59049,14.44593,3.62034
265,8.833,-1.058,14.342,5.640,-1.35163,3.71648,-3.66126
266,8.867,-2.003,11.001,4.534,40.24824,-11.98457,3.65399
267,8.900,-1.753,8.469,4.769,11.88803,-7.67989,4.47038
268,8.933,-0.881,7.578,3.289,11.26837,-16.13649,5.64860
269,8.967,-0.136,5.816,3.878,10.96283,-21.92936,6.71307
270,9.000,-0.331,6.414,4.340,7.76210,-26.65307,1.98396
271,9.033,-0.797,8.994,3.848,12.03229,-25.17350,-5.41261
272,9.067,-1.795,10.412,3.763,14.67390,-22.93553,-10.45446
273,9.100,-2.917,10.552,3.646,16.30343,-18.79724,-5.73075
274,9.133,-2.389,10.007,3.029,16.34032,-11.05241,-1.98681
275,9.167,-1.900,9.216,1.842,10.42147,-10.07922,-5.37184
276,9.200,-1.538,7.454,1.739,2.24963,-5.42113,-11.85229
277,9.233,-1.826,6.626,1.626,-18.35726,-0.97851,-14.68778
278,9.267,-2.466,6.473,1.150,-29.87112,24.58383,-23.30694
279,9.300,-2.076,11.506,6.369,-11.82288,71.12207,-9.53904
280,9.333,5.275,16.852,7.871,-3.11750,-2.47289,23.35185
281,9.367,0.860,10.477,5.478,-0.88281,-8.20138,-12.33405
282,9.400,0.049,10.839,5.049,0.64114,-2.89822,-6.59534
283,9.433,1.399,8.647,4.130,15.77168,11.69198,-5.32630
284,9.467,1.727,6.808,5.075,13.79274,4.17966,-11.40458
285,9.500,0.711,6.513,4.370,-1.57204,8.51330,-9.69636
286,9.533,0.516,6.772,4.117,3.72346,6.65471,-4.34429
287,9.567,0.493,7.550,4.294,-0.08326,3.92625,-4.53211
288,9.600,0.393,10.223,4.269,0.05665,8.88516,-0.82956
289,9.633,0.175,12.722,3.250,3.06511,13.31307,1.98156
290,9.667,1.674,11.440,2.605,20.11192,16.13753,10.49325
291,9.700,1.858,8.963,2.904,15.07069,11.03945,11.08894
292,9.733,1.615,7.143,2.016,3.58746,1.49225,14.67829
293,9.767,2.213,5.537,1.929,-12.89177,-14.25738,17.41384
294,9.800,3.146,4.899,1.347,-26.22135,-37.99054,23.17905
295,9.833,3.873,5.922,3.671,-54.93600,-24.14839,8.59557
296,9.867,-11.418,18.651,12.942,-28.73369,-22.81904,-45.87806
297,9.900,-2.916,9.593,1.845,14.71343,11.69883,26.03978
298,9.933,1.256,11.539,6.835,-6.81598,-8.32654,10.18820
299,9.967,-0.597,12.121,4.267,12.05835,-19.88556,-0.14803
300,10.000,-1.280,10.139,5.402,8.69828,-23.46555,-7.01625
301,10.033,-2.375,9.625,3.816,-12.07031,-14.39523,3.28925
302,10.067,-1.798,8.831,4.332,13.88613,-18.78567,7.14940
303,10.100,-1.555,7.336,5.208,9.29068,-16.27453,9.51848
304,10.133,-1.122,6.997,4.877,4.52439,-16.78194,2.14034
305,10.167,-0.907,7.064,3.488,5.17438,-15.02361,-1.34517
306,10.200,-1.214,8.082,2.324,11.13114,-10.35118,-3.85937
307,10.233,-1.813,9.592,2.816,17.49073,-5.06049,-11.22269
308,10.267,-2.847,9.827,2.654,11.89019,-2.11293,-13.56974
309,10.300,-2.444,9.295,2.547,-2.04360,6.40467,-3.66410
310,10.333,-1.388,8.585,1.468,-17.37700,9.34370,-5.41358
311,10.367,-1.787,7.276,1.512,-22.32596,14.94468,-13.46567
312,10.400,-2.631,6.353,1.757,-27.77799,36.42312,-25.23122
313,10.433,-1.781,12.900,7.994,-17.27108,55.56945,-3.26546
314,10.467,4.449,16.385,4.115,-4.61690,-10.92063,11.99017
315,10.500,-0.505,10.559,5.443,-2.11058,-22.62188,-21.53783
316,10.533,-1.433,10.383,4.165,-17.93348,2.25635,-12.79716
317,10.567,1.713,8.645,4.006,27.05326,20.40240,-4.64548
318,10.600,1.462,7.090,5.802,18.25100,7.19454,-8.47326
319,10.633,1.041,6.551,4.258,3.06063,8.82414,-8.93605
320,10.667,0.506,5.823,4.477,-3.43355,10.31862,-6.36690
321,10.700,-0.737,7.706,3.580,-7.77707,16.55313,-2.74274
322,10.733,0.163,12.637,4.196,11.85856,19.89883,11.36043
323,10.767,1.514,13.497,3.070,16.28259,10.33281,14.03345
324,10.800,1.926,10.190,3.353,25.58389,9.08088,6.90343
325,10.833,1.356,8.314,2.800,15.03521,9.16206,4.15618
326,10.867,0.988,6.653,2.005,11.92882,-1.13168,16.92484
327,10.900,1.556,5.567,2.343,0.56769,-9.90084,28.97362
328,10.933,3.253,5.382,1.551,-35.67222,-26.97156,21.45070
329,10.967,3.012,7.083,2.041,-71.88937,-31.71952,15.08230
330,11.000,-5.585,17.322,13.253,-18.56867,-14.85254,-33.01325
331,11.033,-4.192,10.010,1.449,6.65520,22.80905,13.24922
332,11.067,-0.659,11.771,6.382,14.94596,30.84259,4.36724
333,11.100,-0.856,11.675,5.219,14.44804,-7.56591,3.89244
334,11.133,-0.906,8.790,4.975,11.88886,-14.36507,8.75123
335,11.167,-1.415,7.315,4.449,-9.66627,-14.96445,8.72198
336,11.200,-0.936,6.627,3.695,4.40182,-18.82261,7.02811
337,11.233,-0.743,5.805,4.847,7.55336,-18.20328,3.11817
338,11.267,-0.525,6.238,4.916,-0.61702,-19.35314,-1.75233
339,11.300,-1.719,8.380,2.939,-0.58210,-13.69651,-7.93869
340,11.333,-2.217,11.527,2.391,2.25970,-6.74199,-15.80938
341,11.367,-2.086,11.086,1.856,17.13472,-4.08514,-23.92778
342,11.400,-2.698,8.507,3.085,4.18744,1.21027,-17.62023
343,11.433,-1.912,8.385,1.946,-19.25211,13.38566,-14.05367
344,11.467,-1.348,7.959,1.900,-22.12188,9.98210,-15.10422
345,11.500,-1.348,6.278,2.610,-26.86670,5.35553,-15.95841
346,11.533,-1.916,6.995,4.136,-29.44562,11.37107,-17.23421
347,11.567,3.155,15.930,7.505,-8.84176,0.40667,-3.57737
348,11.600,0.634,14.573,5.031,2.05790,-4.94654,-11.77300
349,11.633,-1.114,13.516,5.310,9.91980,-4.47578,-5.90391
350,11.667,0.476,9.790,4.694,25.30448,8.62476,-4.77495
351,11.700,1.201,7.285,4.792,15.65999,5.41143,-6.07392
352,11.733,1.482,6.350,4.373,13.07639,13.18074,-9.98111
353,11.767,1.317,5.966,3.939,6.18495,7.64818,-5.28947
354,11.800,0.927,6.516,4.272,-0.72941,6.02726,1.94753
355,11.833,0.567,8.201,3.707,1.24925,7.86890,2.63972
356,11.867,0.227,11.266,3.721,-3.91505,11.03919,8.55540
357,11.900,1.627,13.065,2.552,1.30810,9.22167,16.59134
358,11.933,1.950,10.527,2.943,12.12638,12.42443,14.83726
359,11.967,1.562,8.659,2.857,-4.96229,9.89532,9.14035
360,12.000,1.291,6.621,1.826,-15.04353,7.09895,12.30138
361,12.033,1.977,5.102,1.156,-22.44379,-4.13975,16.05930
362,12.067,3.162,4.482,1.871,-32.85826,-12.31991,9.47809
363,12.100,-4.812,16.929,13.881,-32.21596,19.89726,-24.62285
364,12.133,-3.351,15.885,4.685,-30.67861,-7.06252,2.58420
365,12.167,0.448,15.381,4.417,18.55276,22.46482,0.35889
366,12.200,-0.810,11.161,5.689,17.96356,-4.18428,3.83033
367,12.233,-1.259,8.842,4.593,19.22329,3.59222,3.60810
368,12.267,-1.055,8.554,3.450,3.90795,-5.29588,11.06582
369,12.300,-0.823,7.578,2.522,12.00991,-10.98495,8.11974
370,12.333,-0.168,6.583,4.025,20.03659,-13.43122,4.13046
371,12.367,-0.089,6.950,4.192,11.96626,-17.95451,-2.71038
372,12.400,-0.996,7.661,3.369,6.20087,-20.86193,-4.12214
373,12.433,-1.381,8.631,3.042,3.96389,-18.41628,-6.59578
374,12.467,-1.451,10.109,2.886,6.80154,-16.66734,-10.89433
375,12.500,-1.892,10.734,2.752,11.22339,-16.22441,-12.63278
376,12.533,-1.922,9.601,2.154,7.99534,-9.43431,-11.43295
377,12.567,-1.788,8.010,1.474,-14.49455,0.30481,-12.35495
378,12.600,-1.547,6.528,1.397,-32.28188,7.99383,-15.67350
379,12.633,-2.072,5.874,1.233,-38.91720,14.93581,-15.65114
380,12.667,-3.440,6.557,3.763,-33.80377,44.99174,-22.31800
381,12.700,9.135,19.613,12.997,4.97814,-3.54930,22.64861
382,12.733,2.907,12.307,2.507,16.08595,-20.64169,-22.39491
383,12.767,-3.729,12.419,6.214,-20.81471,-28.19756,-13.05337
384,12.800,0.448,12.138,3.060,33.15500,6.24999,2.99437
385,12.833,1.015,8.199,4.711,28.62667,3.15491,-0.09028
386,12.867,2.069,5.605,4.385,5.31018,7.19890,-10.64372
387,12.900,0.558,5.681,3.447,-2.03092,14.57261,-2.02619
388,12.933,0.355,6.014,4.398,6.90554,14.67221,1.94686
389,12.967,0.482,8.196,4.268,4.31672,12.72694,6.58304
390,13.000,1.455,11.123,3.538,0.17523,8.21956,9.74370
391,13.033,1.898,11.770,2.338,1.82086,5.51445,5.07325
392,13.067,0.966,11.560,2.666,8.98559,10.03903,12.70413
393,13.100,0.919,9.720,2.831,9.38043,13.41394,18.43290
394,13.133,1.346,7.979,2.327,-0.76582,12.01714,14.56871
395,13.167,1.867,6.062,1.773,-15.12818,-1.42961,13.31765
396,13.200,2.594,5.073,1.553,-25.49364,-20.29397,16.31985
397,13.233,3.113,5.049,0.907,-35.49161,-34.92503,17.49369
398,13.267,-7.727,18.415,17.025,-11.76254,22.86705,-33.56329
399,13.300,-4.223,12.827,1.851,-15.16981,6.87085,5.31505
400,13.333,1.222,13.975,5.559,4.74770,31.94775,4.16859
401,13.367,-0.594,11.993,4.742,19.04488,-6.25738,3.74248
402,13.400,-0.942,8.173,4.859,14.52794,-17.73169,8.62838
403,13.433,-1.865,6.316,4.480,-9.17430,-12.75473,9.63892
404,13.467,-1.098,6.365,3.588,5.57030,-11.56778,8.36469
405,13.500,-0.410,5.918,3.933,10.13513,-12.90471,4.89729
406,13.533,0.002,8.410,3.608,14.80519,-9.49223,-4.83232
407,13.567,-1.583,11.718,3.173,16.86729,-12.37718,-17.36541
408,13.600,-2.595,10.643,1.703,27.90578,-11.05923,-9.18178
409,13.633,-2.185,9.516,2.352,22.79597,-1.38126,-6.37276
410,13.667,-1.630,9.895,1.558,7.28505,-0.93695,-11.98612
411,13.700,-1.355,8.483,1.503,-0.38577,4.58291,-18.27787
412,13.733,-1.682,7.153,1.949,-16.95898,10.13203,-19.66836
413,13.767,-1.729,6.336,1.660,-32.35384,17.24871,-15.49226
414,13.800,-1.693,5.608,2.103,-42.51652,25.19973,-12.75764
415,13.833,1.303,11.739,9.544,-40.16098,42.32441,7.32532
416,13.867,3.117,16.330,5.737,-24.38163,-14.67288,1.63065
417,13.900,-2.696,13.001,4.410,-36.20882,-31.35337,-20.56597
418,13.933,0.045,13.173,3.244,7.53881,-16.43442,-0.07595
419,13.967,0.935,8.956,5.502,20.42206,-1.89788,3.15328
420,14.000,1.312,6.420,5.231,8.47194,-6.24367,-13.54187
421,14.033,0.625,5.394,3.594,5.33228,2.23128,-16.96712
422,14.067,-0.779,5.044,2.861,-3.90319,11.57789,-10.41143
423,14.100,-0.149,9.512,3.633,-4.11860,36.28051,4.72305
424,14.133,1.634,14.125,4.274,5.54676,11.57500,15.13681
425,14.167,2.278,11.593,1.602,9.85281,16.44897,2.37546
426,14.200,1.608,10.574,3.260,3.56611,10.32219,6.71358
427,14.233,1.590,9.630,2.456,8.29440,9.69060,9.08181
428,14.267,1.144,7.894,2.058,11.48861,-0.35965,15.26548
429,14.300,2.316,6.248,1.894,1.13738,-16.23324,20.48755
430,14.333,2.597,5.712,0.909,-22.26635,-37.98722,20.33016
431,14.367,2.354,5.489,0.785,-29.32949,-45.09909,13.63703
432,14.400,-6.714,18.016,12.302,2.09957,59.30244,-17.24744
433,14.433,-3.604,12.425,1.976,-20.19287,-21.44354,10.50168
434,14.467,0.322,12.588,4.205,8.31105,23.52720,15.43752
435,14.500,-0.393,12.934,6.767,-0.55145,7.47558,-2.87094
436,14.533,-2.516,8.216,4.286,10.43907,-13.32336,0.19329
437,14.567,-2.535,5.870,4.283,8.07536,5.10465,-3.99551
438,14.600,-2.282,6.761,3.567,-4.48265,9.59981,8.85314
439,14.633,-0.607,7.578,3.900,7.67777,9.24849,5.21373
440,14.667,-0.608,8.278,3.743,2.38600,-4.99171,3.39281
441,14.700,-0.344,10.329,3.117,3.23801,-4.25909,-2.53745
442,14.733,-1.126,11.387,3.125,9.29776,-4.75570,-9.86179
443,14.767,-1.919,10.966,2.453,19.85283,-7.38231,-7.47228
444,14.800,-1.224,10.363,2.602,23.29213,-10.30818,-1.52569
445,14.833,-1.011,9.024,1.830,17.88086,-13.91307,-4.48237
446,14.867,-1.213,7.523,1.763,12.25594,-11.40490,-10.37349
447,14.900,-1.744,5.694,1.692,-6.40784,-6.17850,-20.29194
448,14.933,-2.186,5.379,1.469,-32.36315,6.21281,-21.05106
449,14.967,-1.613,6.237,0.132,-44.74623,20.22031,-26.28284
450,15.000,-1.777,9.793,3.983,-53.72844,52.06203,-29.20174
451,15.033,6.570,19.613,8.716,-17.19967,-38.52032,32.68837
452,15.067,0.593,11.499,3.578,14.40469,-33.93938,-30.21711
453,15.100,-2.422,11.203,5.261,-27.10605,-0.56627,-24.31466
454,15.133,-1.405,9.165,2.781,22.21151,26.46318,0.68437
455,15.167,0.939,6.144,4.995,24.59450,17.70098,8.36534
456,15.200,2.171,7.089,4.305,-10.01592,4.18006,-3.41667
457,15.233,1.969,8.227,3.871,-5.91511,2.21553,-3.27343
458,15.267,1.243,8.468,4.273,1.36792,-4.26448,0.30146
459,15.300,0.252,9.326,3.491,2.68733,-8.46726,-0.68392
460,15.333,-0.117,9.546,2.918,5.54930,-1.09853,1.20721
461,15.367,0.716,10.800,2.126,4.30531,5.68706,6.62600
462,15.400,1.149,11.259,1.416,11.71137,9.66311,13.07976
463,15.433,1.115,9.702,1.609,18.62684,4.87540,15.29849
464,15.467,1.427,8.329,2.180,16.41020,3.18323,14.48598
465,15.500,1.970,6.946,2.148,-0.84633,-5.87020,12.27489
466,15.533,2.410,5.868,1.764,-16.52410,-21.95151,10.36619
467,15.567,2.607,5.793,0.468,-41.74887,-44.87625,13.58569
468,15.600,1.903,7.922,3.301,-52.48045,-36.77142,10.62621
469,15.633,-7.697,19.033,10.048,-46.11838,-9.92808,-22.32029
470,15.667,-0.454,14.077,1.894,13.65111,6.88976,1.07976
471,15.700,1.944,15.538,5.492,34.83800,-3.05964,-2.56371
472,15.733,-0.964,10.181,5.502,27.71181,-34.20876,-10.55118
473,15.767,-1.890,7.306,4.002,12.34463,-8.63045,-13.83234
474,15.800,-3.203,5.873,3.467,-4.50355,7.12985,0.69539
475,15.833,-1.395,6.157,3.776,5.08683,7.25392,3.75048
476,15.867,0.028,6.549,3.047,10.21906,-4.86595,4.56251
477,15.900,0.431,8.914,3.081,8.25128,-10.57267,0.32015
478,15.933,-0.428,12.493,3.626,4.56542,-14.64902,-9.75674
479,15.967,-2.118,11.594,3.186,19.58998,-16.73802,-10.99416
480,16.000,-3.136,10.087,3.400,22.65582,-15.84667,1.76397
481,16.033,-2.104,9.700,2.388,11.28726,-2.37598,5.82164
482,16.067,-1.279,8.352,2.017,13.40963,2.40476,-2.21162
483,16.100,-1.197,6.481,2.315,0.04590,9.19081,-10.92363
484,16.133,-1.678,5.567,1.266,-17.73692,19.28838,-13.75066
485,16.167,-2.202,5.991,0.024,-33.25791,28.98559,-14.86837
486,16.200,-1.640,6.761,0.402,-45.93985,49.16252,-27.16810
487,16.233,3.953,17.761,8.127,-13.72204,31.52604,5.10156
488,16.267,4.565,12.488,3.943,-4.05978,-43.03540,16.52702
489,16.300,-4.001,11.401,5.835,-2.15562,-7.43887,-23.32840
490,16.333,-3.033,10.471,4.758,-40.33735,-6.54156,-7.00571
491,16.367,1.195,7.390,2.772,25.88279,33.28367,8.40457
492,16.400,2.141,6.085,5.629,0.96860,19.31028,8.85619
493,16.433,3.330,8.129,4.139,-6.51598,4.06113,-10.89722
494,16.467,0.612,9.179,3.236,-5.09876,2.77761,-10.00625
495,16.500,0.330,9.979,2.265,-9.29797,-7.29769,-1.08404
496,16.533,0.202,11.156,3.682,8.78784,10.38932,-0.66142
497,16.567,1.002,11.644,2.698,1.46627,8.16772,-0.48588
498,16.600,0.979,10.690,2.210,13.90074,8.88550,1.57250
499,16.633,1.564,8.847,2.817,13.71721,3.91279,5.74616
500,16.667,1.869,7.954,2.695,11.08172,-2.58831,8.71501
501,16.700,1.695,7.784,2.399,1.48863,-9.13731,9.99998
502,16.733,1.784,7.349,2.115,-9.03894,-19.15083,9.37715
503,16.767,1.093,7.554,1.368,-15.16582,-25.87826,15.01538
504,16.800,1.805,8.183,0.170,-26.29783,-33.22153,15.54952
505,16.833,1.298,9.486,2.123,-24.47035,-24.54429,14.04231
506,16.867,-5.624,19.393,13.316,6.26456,23.00405,-36.87745
507,16.900,-1.544,8.394,2.253,15.59483,12.15073,-15.26817
508,16.933,2.524,10.656,6.418,2.56078,11.20221,6.24685
509,16.967,0.465,10.631,4.988,13.76968,-28.41092,-1.14287
510,17.000,-2.301,7.181,5.393,19.53052,-19.80477,-1.19007
511,17.033,-2.817,6.480,4.184,1.83095,-5.02447,8.74851
512,17.067,-1.165,7.678,3.781,-3.39137,1.26746,14.21629
513,17.100,-0.548,8.246,4.379,5.16745,-2.77057,12.21400
514,17.133,-1.001,8.952,4.677,3.74282,-6.23939,4.33784
515,17.167,-0.979,9.875,4.344,2.41193,-10.01766,-3.45073
516,17.200,-1.164,10.065,4.219,5.54186,-17.40436,-6.28242
517,17.233,-1.468,9.448,4.207,9.68477,-20.35607,-5.82947
518,17.267,-1.579,8.914,4.171,8.09644,-17.42732,-4.55209
519,17.300,-1.937,8.437,3.934,5.35885,-11.76366,-3.08398
520,17.333,-2.437,7.710,3.523,0.47978,-3.75977,-4.94667
521,17.367,-2.595,7.139,2.902,-3.62091,7.91138,-8.68728
522,17.400,-2.531,7.091,2.719,-15.04290,25.22832,-13.36010
523,17.433,-1.347,7.909,2.528,-28.20577,37.99643,-14.81502
524,17.467,0.207,11.299,4.217,-22.60065,42.10701,-11.07394
525,17.500,2.796,12.886,3.986,-23.18321,-0.39596,1.47323
526,17.533,2.094,10.456,3.186,-17.22878,-8.46754,-17.21280
527,17.567,-0.077,9.549,3.258,-28.17304,-4.73750,-22.55715
528,17.600,-0.620,9.469,2.667,-15.38867,6.22951,-12.33520
529,17.633,0.085,8.990,3.493,-12.37427,8.99981,-1.81888
530,17.667,1.028,9.119,3.597,-11.95905,4.63569,0.54949
531,17.700,1.219,9.488,3.591,-12.90823,-2.77081,-2.51898
532,17.733,0.866,9.572,3.516,-9.71468,-8.25715,-3.81932
533,17.767,0.313,9.477,3.361,-7.44276,-10.03557,-1.77092
534,17.800,0.450,9.701,3.002,-5.57291,-5.78615,0.72497
535,17.833,0.431,9.882,2.958,-3.88080,-2.91894,1.26965
536,17.867,0.793,9.972,2.657,-4.57515,-7.53992,-0.09937
537,17.900,0.716,9.888,2.715,-2.38952,-12.42737,-2.46551
538,17.933,0.489,9.719,2.540,-0.81594,-14.02028,-3.59800
539,17.967,0.158,9.669,2.517,2.52668,-11.72245,-3.65394
540,18.000,0.340,9.790,2.521,3.03818,-11.12209,-3.51145
541,18.033,0.546,9.821,2.537,3.02314,-11.94704,-4.69220
542,18.067,0.506,9.746,2.650,3.03775,-17.15489,-4.88558
543,18.100,0.606,9.632,2.512,2.12217,-19.22132,-4.81672
544,18.133,0.326,9.570,2.629,2.61821,-20.17342,-6.05095
545,18.167,0.571,9.685,2.567,1.10416,-27.09460,-5.25179
546,18.200,0.615,9.567,2.729,0.83993,-30.68808,-5.04571
547,18.233,0.710,9.745,2.473,2.66182,-40.00802,-5.37164
548,18.267,0.546,9.902,2.314,4.31034,-46.30587,-6.07630
549,18.300,0.378,9.550,2.248,2.48100,-51.13729,-3.83203
