frame_number,sync_timestamp,accel_x,accel_y,accel_z,gyro_x,gyro_y,gyro_z
0,0.000,-0.031,10.154,1.587,-1.98473,-3.28244,-1.62595
1,0.033,0.084,10.054,1.609,2.85249,-3.86790,-1.05743
2,0.067,-0.007,9.724,1.784,2.32914,-4.59654,-1.58666
3,0.100,0.122,9.795,1.642,2.62930,-5.14239,-2.38469
4,0.133,-0.068,9.784,1.693,3.15506,-4.20444,-1.89480
5,0.167,0.083,10.495,1.988,7.56388,-4.01906,-1.42652
6,0.200,0.239,9.680,2.274,13.39986,-7.17672,-0.67739
7,0.233,-0.074,9.098,1.889,1.66029,-6.93153,-2.72806
8,0.267,-0.101,9.346,1.788,-3.02652,-3.78436,-4.49755
9,0.300,0.102,9.609,1.878,-1.63973,-1.48879,-5.22113
10,0.333,0.051,9.842,2.210,2.16340,-1.59624,-6.57603
11,0.367,0.265,9.948,2.185,4.98871,0.52569,-3.70251
12,0.400,-0.056,9.925,2.546,5.64786,1.99025,0.76322
13,0.433,-0.163,9.787,2.115,8.77178,5.59562,4.15360
14,0.467,0.354,9.549,1.831,9.12306,4.15822,6.81090
15,0.500,0.463,9.415,1.551,3.51851,-2.90410,10.45917
16,0.533,1.155,10.350,1.473,0.72585,-7.23074,7.26227
17,0.567,0.644,11.079,1.304,-2.15550,-6.41640,-4.98996
18,0.600,-0.106,10.129,1.515,6.08292,-3.21523,-7.97640
19,0.633,-0.074,9.885,1.295,6.71773,3.53394,-4.60428
20,0.667,0.359,9.987,1.611,10.30334,5.27321,-0.53568
21,0.700,0.369,9.401,1.621,13.91294,4.62550,-1.96331
22,0.733,0.526,9.121,1.595,8.04757,4.41499,-3.50208
23,0.767,0.724,9.647,1.206,3.22995,4.11377,-1.00634
24,0.800,0.479,9.928,1.270,8.12369,2.89175,2.49708
25,0.833,0.124,9.388,1.251,10.90011,3.61414,5.37885
26,0.867,0.786,9.435,1.188,5.20960,5.69048,7.71511
27,0.900,0.844,9.945,1.007,1.37935,2.64651,5.02198
28,0.933,0.961,9.769,0.553,-0.61278,-1.93825,6.21305
29,0.967,1.119,9.503,0.090,-4.86739,-6.43046,4.90009
30,1.000,0.270,11.115,1.108,-16.32084,-1.78405,-3.80287
31,1.033,-1.025,12.249,2.412,-7.95347,21.56320,-13.18600
32,1.067,-0.346,11.085,3.076,-1.18304,25.56686,-10.16783
33,1.100,1.797,9.404,2.570,-11.01869,10.13226,1.72731
34,1.133,1.142,10.355,3.687,-21.03285,1.44270,-10.53203
35,1.167,-0.661,10.673,4.500,3.03311,2.36381,-14.60614
36,1.200,0.019,9.187,4.031,8.17173,-1.85942,-10.83429
37,1.233,-0.650,8.836,3.179,-10.94814,-6.16505,2.49993
38,1.267,-0.622,9.538,2.826,-16.92405,-3.49529,11.01651
39,1.300,-0.381,10.009,2.221,-12.88561,-4.18637,7.59985
40,1.333,-0.214,9.198,1.965,-2.93342,-4.53024,1.93922
41,1.367,-0.332,8.695,1.993,2.45960,-5.13485,-0.62860
42,1.400,-0.602,8.662,1.754,3.02360,-10.13712,3.05602
43,1.433,-0.608,8.729,1.555,1.69207,-6.55730,3.83406
44,1.467,-0.558,9.369,0.929,-1.77016,-3.14506,0.23064
45,1.500,-0.480,9.187,0.704,-0.30983,-0.21843,-7.92047
46,1.533,-0.699,8.780,0.284,-3.08565,3.45823,-12.38787
47,1.567,-0.627,9.184,0.283,-6.30942,4.71697,-11.00283
48,1.600,-0.132,10.193,0.281,-12.81075,2.73912,-4.18204
49,1.633,-0.477,10.224,0.154,-5.22746,-1.42526,0.67356
50,1.667,-1.631,9.995,-0.303,0.81792,4.35263,-2.43885
51,1.700,-0.835,12.437,0.625,-16.91502,19.73923,2.97220
52,1.733,1.938,12.985,4.436,-38.37014,13.61280,14.61384
53,1.767,0.375,12.503,4.923,2.09536,-30.93935,22.46296
54,1.800,-1.323,9.359,5.624,-1.66197,-9.22005,6.83887
55,1.833,-0.918,10.086,3.677,-8.06850,8.30280,4.71224
56,1.867,-0.587,9.863,3.094,9.35449,0.39996,14.72461
57,1.900,0.911,9.162,2.955,-4.32876,-1.01248,6.81690
58,1.933,1.289,9.135,2.369,-7.80558,-4.93555,-9.64601
59,1.967,0.642,8.850,2.062,3.83737,-8.05480,-8.55423
60,2.000,-0.201,8.532,1.906,9.86974,-8.04313,-3.26021
61,2.033,-0.451,8.599,1.735,0.26233,-2.81889,3.45073
62,2.067,0.300,9.130,1.583,1.78368,-1.99876,5.82729
63,2.100,0.739,9.665,1.073,3.89913,-7.84781,4.59898
64,2.133,0.317,9.037,0.686,2.39035,-12.61459,4.76864
65,2.167,0.650,8.256,0.562,5.20530,-14.56927,10.75791
66,2.200,0.915,9.019,0.797,9.46797,-12.17136,12.38850
67,2.233,-0.296,10.009,0.992,-2.09143,-9.61055,-0.04703
68,2.267,-0.526,10.086,0.172,-1.95626,-7.54059,-7.36712
69,2.300,0.683,9.270,-0.584,6.85788,-39.07406,2.29247
70,2.333,1.145,11.006,-0.295,7.37635,2.24124,-4.34620
71,2.367,-1.471,13.691,2.996,-86.88390,40.01647,-44.77776
72,2.400,-1.892,11.041,6.993,-46.71500,63.96919,-36.05438
73,2.433,1.311,10.330,4.882,27.87170,0.30605,-10.97103
74,2.467,1.598,10.465,3.879,-9.36336,-15.94354,-9.68854
75,2.500,0.148,10.956,2.394,-1.65248,-0.67505,-16.75093
76,2.533,-1.407,9.159,2.211,1.63727,0.45831,-10.06400
77,2.567,-1.874,8.122,1.237,-8.32410,11.61696,5.35707
78,2.600,-1.275,8.590,1.981,6.44854,20.61141,12.66495
79,2.633,-0.339,8.706,1.244,13.30306,16.59833,9.17602
80,2.667,0.383,8.121,1.014,8.32806,9.24820,6.51921
81,2.700,0.885,8.368,0.596,-1.16207,8.35811,0.71413
82,2.733,0.101,9.109,0.113,-1.50999,6.82341,-9.29988
83,2.767,-0.855,8.983,0.410,3.44783,5.09091,-16.42841
84,2.800,-0.854,9.005,0.348,2.35517,7.34213,-11.35749
85,2.833,-0.269,9.410,-0.160,2.68895,1.90071,1.14618
86,2.867,0.255,10.123,-0.536,-11.37671,0.00468,0.88735
87,2.900,-0.897,10.816,-1.289,-4.28951,13.29362,-9.41821
88,2.933,0.296,14.003,1.038,-31.53261,39.00209,-0.66213
89,2.967,2.591,13.163,7.664,-35.92131,-22.71335,46.22054
90,3.000,1.018,10.875,7.123,24.30034,-50.18978,38.38843
91,3.033,-1.577,10.044,4.694,-19.56934,-28.52755,4.77081
92,3.067,-1.911,11.442,3.163,-11.02041,-7.04924,-2.87126
93,3.100,-0.292,9.346,2.686,24.47000,-9.67989,6.28800
94,3.133,1.048,8.579,2.119,1.00102,-3.99117,0.35001
95,3.167,1.481,8.242,2.133,9.39900,-14.60811,-3.52522
96,3.200,0.592,8.666,2.099,23.70935,-13.70912,-1.87265
97,3.233,0.156,8.431,1.653,23.21058,-12.73353,2.29217
98,3.267,0.551,8.298,1.399,11.88766,-13.36999,-0.44704
99,3.300,-0.054,8.771,0.835,-0.65361,-12.63222,-0.09190
100,3.333,-0.004,8.967,-0.070,0.16905,-9.60430,5.05562
101,3.367,0.342,8.971,0.298,14.32517,-9.50227,15.22060
102,3.400,1.580,9.219,0.693,19.91017,-18.45177,11.72973
103,3.433,-0.648,10.385,0.588,10.55087,-0.83795,-7.14823
104,3.467,0.009,10.304,-0.041,-8.00662,-8.95339,-8.14965
105,3.500,1.053,10.805,0.485,13.52763,-6.05679,-4.44741
106,3.533,-1.586,12.284,1.952,-26.84183,14.04637,-27.39947
107,3.567,-2.186,12.420,7.574,-64.14840,72.88073,-51.86140
108,3.600,-0.443,11.817,6.731,9.91519,27.72332,-24.65545
109,3.633,1.506,11.478,4.427,5.44382,1.36186,-0.40119
110,3.667,0.800,10.861,3.404,-0.70028,-5.12710,0.45775
111,3.700,-0.221,9.610,2.724,3.08812,-2.04792,-4.57702
112,3.733,-1.672,8.673,1.926,-7.75756,9.35315,-3.30973
113,3.767,-1.043,8.555,2.202,-1.47853,16.03606,5.87632
114,3.800,-0.618,8.171,2.183,12.78120,14.80547,7.82337
115,3.833,-0.136,7.755,1.573,12.52611,12.17420,6.97537
116,3.867,0.208,7.685,1.466,7.69510,7.39461,6.59008
117,3.900,0.098,8.728,1.113,-0.69043,1.39067,2.60974
118,3.933,-0.192,9.024,0.495,-7.92472,5.76887,-9.96029
119,3.967,-0.859,8.676,0.584,-5.47196,8.04408,-15.81711
120,4.000,-0.619,9.135,0.330,-2.85507,6.56933,-11.30351
121,4.033,0.011,10.200,0.123,-9.52676,2.02725,0.79597
122,4.067,0.014,10.192,-0.602,-11.87059,-7.02520,1.88354
123,4.100,-1.451,10.401,-1.169,-0.34030,0.83070,-6.66189
124,4.133,0.547,13.283,2.482,-37.79051,16.45226,10.19810
125,4.167,2.603,14.991,6.277,-36.48195,-35.05768,46.17553
126,4.200,-1.686,10.573,5.929,27.48473,-41.28537,19.58909
127,4.233,-2.592,9.842,4.640,-18.81632,0.26835,3.81917
128,4.267,-0.807,10.643,2.573,0.70542,16.38662,8.82170
129,4.300,0.212,9.104,2.510,15.42393,-3.61469,16.86541
130,4.333,1.589,8.736,2.173,-2.33694,-3.13947,-2.21921
131,4.367,1.250,8.725,1.780,7.20834,-15.88851,-11.03273
132,4.400,0.231,8.454,1.602,19.33069,-12.09515,-7.98550
133,4.433,-0.326,8.383,1.759,21.72473,-9.41341,2.06898
134,4.467,0.291,8.617,1.260,11.66951,-8.49030,1.98246
135,4.500,0.177,9.015,0.770,0.45009,-4.68070,3.24145
136,4.533,0.046,9.056,0.277,4.75519,-5.03453,8.33701
137,4.567,0.905,8.583,0.742,15.77229,-6.20887,13.14836
138,4.600,1.669,9.157,0.718,16.46056,-35.67968,13.03734
139,4.633,0.475,9.719,0.832,23.37305,-7.08436,-6.83823
140,4.667,-0.198,10.089,-0.559,3.87387,-5.16801,-12.40630
141,4.700,1.338,11.411,0.119,2.88562,-7.24074,-2.54588
142,4.733,-2.392,13.206,3.745,-26.19876,27.64369,-21.07022
143,4.767,-2.569,10.590,7.182,-44.94755,79.69215,-47.52281
144,4.800,0.601,9.450,6.272,-3.77385,26.82954,-24.02122
145,4.833,1.476,12.272,4.962,-23.08424,9.87983,-13.10539
146,4.867,0.579,11.599,2.617,-0.49795,0.36644,-15.93924
147,4.900,-1.052,8.677,3.185,2.71674,5.54113,-11.13082
148,4.933,-1.739,8.021,2.036,-19.86397,8.42971,4.93035
149,4.967,-1.417,8.449,2.174,-13.80404,15.49680,12.05839
150,5.000,-0.338,8.322,1.766,6.72848,18.54942,10.05678
151,5.033,0.658,8.022,1.329,10.88009,7.75555,8.85817
152,5.067,0.415,7.996,1.056,2.56662,2.84525,3.83440
153,5.100,-0.090,9.027,0.721,-5.49741,2.55970,-2.52554
154,5.133,-0.525,9.172,-0.198,0.80317,3.33352,-10.78100
155,5.167,-0.393,8.994,0.436,4.64948,6.51429,-14.04787
156,5.200,-0.503,9.069,0.138,6.87949,5.94296,-7.31227
157,5.233,-0.175,10.598,0.117,-13.97709,5.55098,5.30364
158,5.267,-0.010,10.691,-1.018,-11.15427,-2.40130,1.42704
159,5.300,-1.075,10.768,-1.154,9.10308,7.98197,-5.60098
160,5.333,0.869,12.357,2.750,-43.40696,20.10666,10.31191
161,5.367,2.082,13.207,7.680,-26.65389,-39.86172,43.21859
162,5.400,-0.117,11.360,5.429,28.03726,-31.81536,28.23250
163,5.433,-2.561,10.136,4.550,-18.47804,-4.80760,0.66933
164,5.467,-0.963,10.911,1.985,5.03003,10.11861,-3.30018
165,5.500,0.214,8.935,2.663,11.65681,-1.22986,-0.44287
166,5.533,1.308,8.417,1.899,2.37629,-3.49414,-3.61018
167,5.567,1.715,8.744,2.025,12.37531,-13.30688,-4.80924
168,5.600,0.816,8.270,1.973,26.27484,-18.84700,-3.37473
169,5.633,-0.254,8.094,1.453,17.65964,-15.39707,-3.73505
170,5.667,-0.129,8.450,1.288,3.99323,-11.28892,0.12093
171,5.700,0.087,9.091,0.658,-3.31989,-10.59524,5.29943
172,5.733,0.405,8.952,0.695,-0.87317,-17.80287,8.79364
173,5.767,0.676,9.169,0.552,17.06984,-13.88451,10.86637
174,5.800,0.897,9.325,0.986,17.17750,-22.81868,1.12280
175,5.833,-0.804,9.856,1.309,-8.95958,-23.01553,-7.65629
176,5.867,-0.002,9.787,-0.318,4.31220,-8.66151,-6.27236
177,5.900,0.801,11.375,0.618,-2.12508,-3.88651,-10.29930
178,5.933,-2.280,14.253,4.348,-69.26552,53.86866,-51.05303
179,5.967,-1.463,10.852,7.744,-35.51978,49.10617,-31.76165
180,6.000,0.425,11.725,4.908,3.69207,-0.50777,-4.76587
181,6.033,0.168,10.353,2.981,-21.00958,-4.51442,-0.53163
182,6.067,0.163,9.908,2.307,-9.44857,2.75625,-2.70048
183,6.100,-0.229,9.238,1.838,-11.22641,1.37684,-3.27115
184,6.133,-1.013,8.637,1.702,-2.90993,9.93266,2.49592
185,6.167,-0.973,8.358,1.923,10.51438,10.73731,6.92881
186,6.200,-0.583,8.254,1.528,16.84232,10.30477,6.33071
187,6.233,0.444,7.903,1.056,9.88187,3.22888,5.12203
188,6.267,0.630,8.089,0.676,-1.36050,-4.18896,-0.15212
189,6.300,-0.101,8.892,0.278,-6.95823,-5.43296,-9.22052
190,6.333,-0.741,8.837,0.293,-1.43586,1.98193,-17.24085
191,6.367,-1.456,9.045,0.092,0.94087,8.89370,-12.28359
192,6.400,-0.919,9.898,-0.886,-1.59675,5.64593,2.84031
193,6.433,0.380,10.619,-0.980,-18.62155,-0.46459,5.83340
194,6.467,-0.694,10.519,-1.551,-0.75219,6.01342,-1.02362
195,6.500,-1.683,12.167,-0.113,-5.08582,23.80337,-2.02546
196,6.533,1.645,12.838,4.804,-45.92106,-4.75170,40.14883
197,6.567,2.270,12.751,7.699,17.19348,-40.07107,50.69307
198,6.600,-1.069,10.379,5.177,2.88623,-28.58290,0.26681
199,6.633,-2.287,10.890,2.856,-34.45070,-7.66626,-12.11767
200,6.667,0.193,9.918,1.623,13.71478,-3.27286,-7.97347
201,6.700,-0.128,8.726,1.893,-3.36150,1.75643,-1.51200
202,6.733,1.166,8.926,1.663,5.14987,-14.21942,-0.27354
203,6.767,1.133,8.720,1.465,23.78501,-22.46548,-0.23133
204,6.800,0.273,7.949,1.050,31.12103,-22.10503,1.10944
205,6.833,-0.115,7.977,1.134,20.09245,-16.11682,0.55777
206,6.867,-0.246,8.595,0.785,3.22602,-9.10900,0.01149
207,6.900,-0.040,8.711,0.394,6.78710,-8.72315,7.96866
208,6.933,0.164,8.877,0.461,17.89738,-5.19230,16.21506
209,6.967,1.021,9.308,0.717,19.34219,-10.40604,6.86956
210,7.000,-0.899,10.396,0.435,7.30195,1.86924,-6.79284
211,7.033,-0.361,10.484,-0.725,-0.83598,-4.42554,-10.98799
212,7.067,1.250,11.092,0.127,18.52812,8.91100,-6.01022
213,7.100,-0.932,13.067,1.029,-31.80015,23.91015,-27.75267
214,7.133,-1.828,13.488,7.463,-73.63345,70.28166,-54.83903
215,7.167,1.003,11.543,5.343,7.06148,19.94825,-21.04849
216,7.200,1.922,10.648,3.293,15.76617,-14.33364,-5.19417
217,7.233,0.332,10.879,3.227,4.20108,-16.57013,-11.34199
218,7.267,-1.078,9.852,2.665,7.39565,-0.24372,-7.39708
219,7.300,-1.497,8.555,2.027,-9.64173,10.69530,8.00220
220,7.333,-1.806,8.915,2.210,-4.74335,18.83318,16.57983
221,7.367,-0.569,8.568,1.821,12.25109,13.11114,12.56393
222,7.400,0.210,7.565,1.510,7.61626,9.67525,8.78268
223,7.433,0.805,7.350,1.474,0.92662,4.07142,7.75541
224,7.467,0.388,8.174,1.013,-3.45367,-2.05343,1.19490
225,7.500,-0.246,8.853,-0.196,-9.79590,0.83869,-9.38000
226,7.533,-0.430,8.779,0.047,-6.99208,6.85040,-17.73974
227,7.567,-1.324,10.026,0.680,-1.94513,9.85024,-12.28026
228,7.600,-0.529,11.150,0.129,-0.31972,5.74713,4.94874
229,7.633,1.076,10.089,-0.430,1.06696,-5.02633,3.70390
230,7.667,-0.759,10.150,-1.154,9.80940,2.97408,-3.96904
231,7.700,0.720,13.386,1.984,-49.80748,4.93458,19.44133
232,7.733,1.702,13.948,7.071,-33.63533,-32.47554,36.82309
233,7.767,-1.788,10.615,5.251,18.48043,-17.78674,19.87068
234,7.800,-1.462,9.280,4.141,-7.14185,13.96055,7.30923
235,7.833,-0.487,9.950,2.926,5.40330,19.79375,7.10787
236,7.867,-0.061,9.578,2.798,9.32096,4.06628,9.73907
237,7.900,1.486,9.090,2.233,-5.13045,-1.40123,-3.95550
238,7.933,0.951,8.745,1.786,-3.16940,-6.76196,-10.67707
239,7.967,0.430,8.940,1.386,8.33627,-5.19909,-3.16421
240,8.000,-0.492,9.040,1.463,12.98669,-2.63117,1.70383
241,8.033,-0.039,8.592,1.254,5.91077,1.58471,1.75892
242,8.067,0.410,8.779,0.977,2.64031,-3.58394,0.20545
243,8.100,0.388,8.537,0.481,1.66995,-9.73319,8.60677
244,8.133,0.538,8.126,0.652,3.75958,-13.13273,13.23337
245,8.167,0.981,9.259,0.630,7.25167,-17.57550,13.06026
246,8.200,0.665,10.787,0.263,7.25475,-18.16413,-1.51680
247,8.233,-0.463,10.651,-0.344,4.52816,-20.74845,-11.02622
248,8.267,-0.150,10.611,0.431,19.14380,-3.45678,-7.95420
249,8.300,-1.279,12.851,1.507,-25.71803,11.82717,-22.05570
250,8.333,-2.255,14.573,6.075,-53.21093,52.78233,-49.51291
251,8.367,1.194,10.480,4.850,-7.15756,28.12887,-14.15655
252,8.400,1.421,9.882,5.065,-6.83318,-13.89830,-8.17627
253,8.433,0.126,10.420,3.106,-4.47647,-22.68885,-10.80933
254,8.467,-0.266,9.861,2.674,-2.72345,-13.08771,-12.22061
255,8.500,-1.289,8.847,2.434,-13.12070,-2.46983,-5.10025
256,8.533,-1.770,8.699,2.242,-12.70845,4.34223,3.10438
257,8.567,-1.702,9.031,1.775,-9.49623,10.39210,8.55881
258,8.600,-0.934,9.099,1.537,1.95018,11.40356,8.50100
259,8.633,0.049,8.924,1.267,-2.40199,8.65187,5.12219
260,8.667,-0.028,8.593,0.779,-7.48038,8.52223,-1.80010
261,8.700,-0.376,8.940,0.436,-2.13272,6.96772,-7.71525
262,8.733,-0.364,8.733,-0.008,3.61401,11.02407,-15.42005
263,8.767,-0.513,8.268,0.194,2.49401,15.44575,-21.88380
264,8.800,-0.688,8.512,0.085,-6.30538,15.40469,-16.93524
265,8.833,-0.217,9.839,0.095,-17.42626,29.81716,-8.99142
266,8.867,-0.131,9.938,-0.673,-2.43862,12.25950,-4.37688
267,8.900,-0.011,8.749,-1.140,10.40745,-2.46835,1.00043
268,8.933,-1.760,11.290,-0.426,-29.84155,12.61906,11.12086
269,8.967,1.033,14.270,1.646,-83.02416,10.28871,38.01500
270,9.000,2.584,14.362,5.659,15.34990,-37.71522,33.12313
271,9.033,-0.213,9.827,4.624,7.71298,-27.43757,9.27084
272,9.067,-1.396,10.507,4.360,-23.92456,2.40750,-1.41357
273,9.100,-1.026,11.446,3.103,10.28830,6.51887,5.85960
274,9.133,0.455,9.708,2.652,11.90360,9.41776,-0.31556
275,9.167,1.491,9.300,2.444,18.94612,6.24466,-12.73120
276,9.200,0.813,9.636,2.486,26.23781,0.91705,-7.24644
277,9.233,-0.240,9.828,2.363,16.53880,5.81145,-0.56681
278,9.267,0.159,9.081,2.415,10.77805,4.75356,0.01960
279,9.300,0.989,8.964,1.987,1.20553,2.52521,-5.24733
280,9.333,0.791,8.858,1.727,-4.60448,2.92784,-6.88651
281,9.367,0.152,9.097,1.806,-3.99294,4.85038,-2.53454
282,9.400,0.095,9.139,2.048,-6.49557,-0.67753,3.37636
283,9.433,0.227,9.229,1.567,-9.63092,-10.39826,9.32934
284,9.467,1.223,10.383,1.535,-10.49403,-16.32095,2.58917
285,9.500,0.618,10.505,2.221,-5.79151,-15.24034,-2.86924
286,9.533,-0.711,11.074,2.183,2.55437,-3.56595,-4.92450
287,9.567,-1.419,10.475,2.316,15.70202,2.38947,-3.07405
288,9.600,-0.339,9.230,2.079,12.39778,6.74711,-0.92542
289,9.633,0.650,9.256,2.048,8.39265,1.52181,-2.61393
290,9.667,0.098,9.688,2.055,12.61026,-4.17292,-5.67102
291,9.700,-0.500,9.730,2.394,11.76797,-4.54321,-3.42817
292,9.733,-0.245,9.419,2.065,8.35696,-3.68922,0.21186
293,9.767,-0.079,9.448,2.008,5.88602,-1.59518,0.46546
294,9.800,-0.192,9.677,1.966,5.07523,-4.00844,0.45480
295,9.833,-0.181,9.654,2.062,7.03378,-6.20006,-1.61990
296,9.867,-0.161,9.610,2.014,4.44004,-5.59779,-3.09949
297,9.900,-0.291,9.862,1.991,4.79046,-5.41962,-2.33805
298,9.933,-0.206,10.057,2.117,8.57529,-4.15023,-0.33393
299,9.967,-0.363,9.785,2.015,8.17355,-3.27436,0.89324
300,10.000,-0.197,9.850,2.034,8.72061,-2.77302,1.23893
301,10.033,-0.073,9.719,2.110,8.63877,-2.04215,-1.47860
302,10.067,-0.093,9.658,2.062,5.54996,-1.98686,-0.87572
303,10.100,-0.214,9.599,2.043,4.39389,-1.41983,-0.41171
304,10.133,-0.088,9.772,2.218,3.91652,-0.07706,-0.84944
305,10.167,-0.106,9.722,2.262,2.69384,0.34851,-1.37484
306,10.200,0.060,9.800,2.100,2.42778,0.26169,-1.93999
