frame_number,sync_timestamp,accel_x,accel_y,accel_z,gyro_x,gyro_y,gyro_z
0,0.000,0.151,9.752,3.500,1.44275,11.31298,0.84733
1,0.033,0.244,10.155,3.497,4.19752,8.61466,1.03714
2,0.067,0.111,9.545,3.279,4.40970,5.02935,2.54309
3,0.100,0.082,9.439,3.579,3.27881,1.83580,3.54688
4,0.133,0.056,9.505,3.569,4.62459,0.04363,2.68387
5,0.167,0.029,9.340,3.642,4.45391,-0.43487,2.22560
6,0.200,0.102,9.427,3.587,5.73242,-0.35061,2.41698
7,0.233,0.060,9.382,3.661,5.15651,-0.65870,2.14183
8,0.267,-0.084,9.354,3.459,1.34228,0.26976,1.88375
9,0.300,-0.213,9.773,3.635,3.87971,0.84033,0.14992
10,0.333,-0.158,9.501,3.496,2.84653,3.20525,-0.96150
11,0.367,-0.039,9.223,3.163,-1.15373,1.09056,-0.07455
12,0.400,-0.095,9.334,3.138,-0.68127,-1.20914,-3.64949
13,0.433,-0.327,9.359,3.306,0.98957,-3.98608,-7.09734
14,0.467,-0.206,9.294,3.410,-0.35138,-4.93494,-8.51372
15,0.500,-0.640,9.484,3.174,-2.43173,-2.06642,-11.03884
16,0.533,-1.068,9.455,3.001,0.85688,0.90989,-7.34917
17,0.567,-0.139,9.315,3.162,-1.55865,0.81640,-6.11976
18,0.600,-0.006,9.283,2.957,-7.18246,-5.77907,-7.83024
19,0.633,-0.082,9.231,2.701,-11.72817,-5.82006,-8.62104
20,0.667,-0.135,9.560,2.917,-12.21019,-0.43712,-8.52897
21,0.700,0.120,10.021,3.325,-0.75598,3.93180,-5.41594
22,0.733,0.569,9.492,3.535,6.81177,4.27520,-6.15425
23,0.767,0.732,10.141,4.274,7.98950,5.09710,-7.12182
24,0.800,0.980,11.807,5.489,11.89053,5.68548,-8.37335
25,0.833,0.896,11.285,5.777,28.39248,10.63813,-14.06868
26,0.867,1.477,9.447,5.086,42.62455,3.71342,-6.87455
27,0.900,1.763,9.953,2.179,40.84203,-1.68870,6.38335
28,0.933,2.156,7.729,0.483,45.61081,-21.21378,16.87662
29,0.967,1.964,6.400,0.134,23.28035,-39.03043,19.44515
30,1.000,2.397,7.597,2.385,-22.28221,-23.21232,10.74498
31,1.033,-2.692,13.017,5.450,-31.11684,0.23652,-12.60292
32,1.067,-4.003,11.031,1.611,-21.34869,17.03945,4.97556
33,1.100,-1.660,8.879,3.414,-19.20394,41.48142,14.52968
34,1.133,0.231,8.971,5.486,-15.49289,-6.93352,22.38059
35,1.167,1.115,9.707,5.939,-12.23392,-12.78145,10.67249
36,1.200,-0.181,8.255,6.464,-0.34964,-17.45399,4.29879
37,1.233,-1.549,9.462,5.940,-10.19183,-5.76473,3.43348
38,1.267,-2.566,10.432,5.051,1.32916,0.21469,7.23919
39,1.300,-1.367,9.164,4.893,12.07159,2.24278,-0.04104
40,1.333,-1.301,8.068,3.131,47.54608,-0.80418,-3.39671
41,1.367,-2.958,8.087,1.221,32.64285,4.32192,-11.00009
42,1.400,-2.613,6.703,0.228,20.02116,35.13578,-23.07194
43,1.433,-3.181,6.667,1.358,-17.04988,57.54775,-28.51523
44,1.467,2.019,13.217,6.961,-31.93791,66.74435,1.50335
45,1.500,5.128,14.141,1.720,1.39630,-32.21543,8.92818
46,1.533,1.084,11.395,0.099,-3.43347,-30.13133,-17.84286
47,1.567,-1.151,8.280,4.550,-29.90611,-7.19086,-28.05328
48,1.600,-0.273,9.483,3.722,-10.62507,-21.14609,-9.43550
49,1.633,-0.082,7.437,5.272,22.89722,8.49909,-5.77665
50,1.667,0.343,8.389,6.194,7.01016,10.47959,-0.44274
51,1.700,1.523,10.457,6.037,11.10899,8.91243,7.29508
52,1.733,1.014,9.438,6.221,12.62786,11.49380,0.05130
53,1.767,-0.403,8.782,5.305,13.19161,20.15695,-0.87837
54,1.800,1.113,9.448,3.188,20.82748,16.10678,7.64362
55,1.833,3.190,8.772,1.339,13.70558,-15.77550,17.25895
56,1.867,4.719,6.512,-0.354,0.66699,-46.68989,21.75293
57,1.900,2.268,7.407,0.921,-23.75362,-54.98935,27.91554
58,1.933,-1.600,11.935,7.028,-54.56091,-19.45383,7.00059
59,1.967,-4.749,12.842,3.729,-38.11364,-26.23850,-15.76206
60,2.000,-1.821,8.624,2.695,-29.92641,44.12230,1.31686
61,2.033,-0.385,8.432,6.378,-37.92441,14.50278,8.37105
62,2.067,-0.210,9.509,5.798,-4.22662,-21.50803,9.23026
63,2.100,-0.873,9.010,6.347,7.24261,-10.06265,3.48115
64,2.133,-0.357,8.180,6.621,4.28111,-17.70063,-0.11306
65,2.167,-0.823,7.789,5.868,8.09248,-24.57004,5.78791
66,2.200,-2.255,7.734,6.412,0.46619,-13.38810,0.96471
67,2.233,-2.063,8.161,2.905,13.23235,-3.41586,-5.40186
68,2.267,-2.799,9.090,1.752,31.52683,-0.59989,-14.52756
69,2.300,-2.667,6.691,0.562,18.04281,20.42701,-29.98503
70,2.333,-3.446,6.601,0.988,-15.49180,46.94712,-33.95172
71,2.367,-1.854,11.269,3.754,-51.38088,73.95730,-23.55072
72,2.400,5.643,16.156,5.029,-3.20581,-5.03833,13.99327
73,2.433,3.139,10.517,4.444,-7.78372,-39.49010,-5.10012
74,2.467,-0.885,9.201,6.563,-8.52398,-28.01561,-15.47705
75,2.500,0.459,8.189,5.463,-5.56771,-34.64854,-17.72624
76,2.533,-0.736,7.043,5.173,24.63008,-2.37750,-9.87364
77,2.567,-0.097,6.303,6.064,10.73329,-9.71196,-1.44756
78,2.600,0.478,9.021,7.073,2.46385,7.34990,-2.68849
79,2.633,0.232,10.951,6.657,-0.53436,15.16992,-0.43856
80,2.667,-0.279,10.547,4.571,6.42845,25.28317,5.26312
81,2.700,0.647,9.590,2.023,22.00583,29.35069,16.14255
82,2.733,3.674,8.024,-0.280,13.26463,14.81035,30.80235
83,2.767,4.023,5.163,-1.681,3.31229,-33.76400,51.11998
84,2.800,4.208,7.546,1.531,-26.11719,-43.87634,29.60195
85,2.833,-13.432,19.554,8.519,-52.59360,42.62075,-43.06793
86,2.867,-0.728,8.736,1.825,-70.95605,13.09905,-7.50242
87,2.900,1.019,11.162,-1.934,8.12264,32.32767,14.99808
88,2.933,1.972,7.372,7.000,-43.41230,-4.88384,24.93854
89,2.967,-0.011,7.155,4.135,-26.06493,-22.95039,12.66300
90,3.000,-0.570,9.312,6.119,-17.21163,-15.26483,-0.04146
91,3.033,-0.344,9.473,5.946,1.30246,-25.99464,-6.10766
92,3.067,-1.442,10.686,5.412,21.67059,-17.43461,-4.87503
93,3.100,-1.571,11.528,4.352,15.08385,-30.41041,4.76477
94,3.133,-1.101,10.850,2.362,26.13537,-28.99010,5.30435
95,3.167,-1.750,9.904,0.353,49.72814,-26.96847,-11.37646
96,3.200,-3.542,8.014,1.609,66.98692,-12.03127,-20.53504
97,3.233,-3.208,6.269,-0.032,32.29092,13.77017,-11.38973
98,3.267,-3.177,5.103,-1.289,14.96284,52.14321,-20.55242
99,3.300,-3.583,5.720,3.024,-53.31165,87.75103,-28.04803
100,3.333,12.931,19.501,10.745,-46.45779,6.66373,14.85229
101,3.367,-0.127,10.279,1.516,-2.24088,-17.77463,-3.65794
102,3.400,0.613,8.865,2.794,-45.11265,13.80251,-23.55610
103,3.433,-0.004,9.514,5.419,-34.62142,-0.26056,-12.35726
104,3.467,2.185,7.591,6.320,13.33910,-8.11628,-18.73624
105,3.500,0.779,5.018,7.126,13.23182,-4.99655,-13.69455
106,3.533,0.094,6.281,5.121,-0.91361,4.46326,-5.70143
107,3.567,1.731,11.177,6.478,4.93660,-11.73778,4.48702
108,3.600,2.511,13.232,5.498,13.44949,-23.19884,-6.21482
109,3.633,0.762,9.915,5.601,11.14083,-11.76899,-3.12422
110,3.667,0.597,9.073,2.891,21.73532,-6.38471,9.15102
111,3.700,1.794,9.227,0.403,40.54720,4.48149,18.68811
112,3.733,2.744,7.543,0.178,36.60604,-18.92324,30.39536
113,3.767,2.906,5.929,-0.308,18.23819,-47.56951,34.19228
114,3.800,3.137,9.495,3.754,-60.07231,-59.54986,17.26720
115,3.833,-13.184,18.074,6.738,10.70711,12.72212,-36.45097
116,3.867,-3.209,8.228,-0.867,-34.33941,67.12572,9.19400
117,3.900,-2.367,8.090,4.761,5.25616,22.73239,15.28762
118,3.933,0.388,8.651,6.063,-9.43726,-3.14384,14.15568
119,3.967,-1.515,9.050,6.173,-2.93471,3.25532,-0.96226
120,4.000,-0.207,8.269,6.248,-6.09243,-7.09042,1.41022
121,4.033,-0.695,8.115,5.479,-0.96435,-3.39719,7.76327
122,4.067,-1.979,10.437,5.340,1.91667,-2.35250,5.01666
123,4.100,-1.700,10.960,3.399,3.60902,-7.54073,7.74279
124,4.133,-1.354,9.136,2.018,25.30895,-10.37932,6.26802
125,4.167,-1.432,8.726,1.610,30.40453,-9.87336,-4.24055
126,4.200,-2.502,9.592,0.957,34.63415,-1.15533,-19.33017
127,4.233,-2.501,7.718,0.806,25.35812,-2.30512,-25.31826
128,4.267,-2.192,6.376,0.711,-9.50568,18.97983,-28.60466
129,4.300,-3.803,6.039,0.664,-44.33531,44.06778,-26.21912
130,4.333,-0.404,14.045,5.960,-36.24367,75.25504,-2.35367
131,4.367,4.932,15.696,6.370,-15.23661,-8.13921,17.74168
132,4.400,-0.182,11.164,4.512,-11.46845,-22.23186,-23.24708
133,4.433,-1.720,7.656,7.754,0.89734,-17.93251,-20.47868
134,4.467,-1.590,7.533,3.590,-10.01863,-15.41539,-5.64950
135,4.500,1.177,5.401,4.433,19.98332,18.59589,1.54086
136,4.533,2.674,6.209,5.536,4.95489,-3.34458,2.74874
137,4.567,1.921,9.590,5.286,-2.48961,-3.12756,-0.28916
138,4.600,0.127,12.363,3.961,-23.83319,-3.74954,5.21198
139,4.633,0.301,10.897,3.878,22.99090,6.57361,6.47234
140,4.667,1.142,11.115,2.888,18.16010,-0.04354,3.76965
141,4.700,2.732,11.482,0.008,44.34812,-10.08722,7.64430
142,4.733,2.758,8.114,-0.211,35.70186,-27.37226,25.55131
143,4.767,2.076,5.545,0.852,-3.16893,-48.76770,26.07902
144,4.800,-0.845,9.291,4.761,-59.83938,-20.62572,8.24180
145,4.833,-7.002,16.996,6.411,-31.22258,-20.88075,-30.17007
146,4.867,-2.099,9.259,3.836,-0.51447,38.67223,-2.37973
147,4.900,-0.699,9.884,7.914,-10.44785,18.74603,5.48888
148,4.933,-1.184,7.625,4.319,2.10511,8.20648,11.62306
149,4.967,-1.455,5.093,5.842,2.21026,16.97080,9.81880
150,5.000,-1.090,5.504,5.850,-10.08105,8.10699,6.57318
151,5.033,-0.617,7.152,4.676,-18.20167,-4.46661,10.25406
152,5.067,0.275,10.066,3.602,-9.20989,-9.47705,-1.64043
153,5.100,-1.839,13.185,4.119,20.70160,-15.47426,-11.77871
154,5.133,-2.685,11.312,2.541,33.13199,-12.47996,-18.81443
155,5.167,-3.429,8.610,2.294,33.25267,-3.29003,-11.28470
156,5.200,-2.070,8.342,2.273,4.77453,11.83888,-14.33894
157,5.233,-1.223,6.412,0.974,-7.93535,4.08941,-13.20982
158,5.267,-1.789,3.285,0.465,-26.13224,-0.60892,-8.37207
159,5.300,-2.072,4.485,3.878,-59.58290,35.66391,-23.86610
160,5.333,4.167,16.277,9.789,-37.95129,30.70550,-5.35932
161,5.367,1.037,15.734,1.731,-51.95123,-5.00377,-4.96504
162,5.400,-2.295,13.833,6.102,-15.15466,-43.00398,-6.99448
163,5.433,0.172,12.224,4.770,23.82256,-5.49443,-9.86859
164,5.467,0.991,9.130,4.466,13.32516,8.54626,-7.51808
165,5.500,0.548,8.002,4.633,6.22366,7.00550,-12.72547
166,5.533,0.440,7.279,4.167,11.76883,17.99608,-2.65484
167,5.567,0.549,6.598,5.001,17.30466,23.83177,3.22124
168,5.600,0.512,8.367,4.865,19.80689,22.46414,6.70266
169,5.633,0.988,9.384,4.701,22.39934,18.68023,16.37394
170,5.667,2.609,9.116,4.006,16.60630,5.99088,15.68871
171,5.700,2.704,9.041,2.791,15.46189,-11.55026,12.89554
172,5.733,2.410,8.705,0.158,17.51575,-33.04213,23.50812
173,5.767,2.555,6.524,-1.132,18.13745,-55.07837,36.58149
174,5.800,2.197,6.535,0.037,-2.43970,-66.73409,34.77097
175,5.833,-13.206,19.613,14.120,-21.38598,30.30368,-32.31338
176,5.867,-1.908,8.938,0.268,5.43130,30.61498,19.66351
177,5.900,-0.576,7.988,5.170,16.20945,16.41050,14.52194
178,5.933,-0.191,9.349,6.933,-19.48942,-25.55239,-0.75606
179,5.967,-3.053,6.348,4.275,-1.87204,-10.03528,-7.31787
180,6.000,-3.575,5.393,4.433,-19.58405,17.63837,-16.01254
181,6.033,-3.932,6.361,4.981,-20.44136,25.44951,12.40327
182,6.067,-0.309,7.774,5.372,-14.17973,29.83691,13.27463
183,6.100,2.110,11.767,4.496,11.69029,-6.74230,11.06428
184,6.133,-0.636,12.343,3.991,20.75988,-25.84415,-1.45160
185,6.167,-2.035,9.778,4.033,14.64034,-13.83916,-16.73283
186,6.200,-4.660,7.936,4.151,10.57936,-5.86528,-12.75247
187,6.233,-3.219,7.844,2.114,9.39002,10.42464,-12.24178
188,6.267,-2.263,6.592,-0.103,0.88317,16.99356,-16.37969
189,6.300,-0.264,4.824,-0.389,-13.24270,8.98033,-31.04206
190,6.333,-1.507,6.082,0.820,-34.00082,45.97499,-55.89846
191,6.367,-3.532,15.009,8.101,-54.68862,72.11085,-3.34488
192,6.400,4.092,14.890,5.356,-11.11070,-21.25027,22.13322
193,6.433,-0.494,10.074,5.607,-26.13598,-22.32310,-14.02341
194,6.467,-0.845,7.651,6.604,-35.86279,-13.26373,-10.54211
195,6.500,1.422,8.671,3.699,19.72001,8.35659,-4.84581
196,6.533,0.648,8.020,6.221,20.20872,-6.37732,-3.45791
197,6.567,1.049,7.261,4.997,0.04853,4.57532,-9.71413
198,6.600,1.756,7.581,5.055,-9.00278,-2.53761,-7.12370
199,6.633,0.766,9.022,4.744,-6.75476,-5.09796,-1.69923
200,6.667,-0.257,10.321,3.697,2.32359,0.21614,3.08558
201,6.700,0.324,10.283,3.303,14.06218,6.50553,13.20065
202,6.733,2.017,10.304,2.152,23.54956,2.97376,22.14764
203,6.767,2.000,9.923,0.078,28.00699,-3.96365,21.86614
204,6.800,1.528,7.104,-1.497,20.51552,-29.94148,27.27656
205,6.833,3.098,5.755,0.364,-15.15131,-50.22095,23.03313
206,6.867,-6.588,17.616,11.175,-56.59297,17.87126,-33.14757
207,6.900,-1.688,9.863,2.941,9.76868,3.85385,-9.67376
208,6.933,-0.089,8.246,7.255,-5.55646,12.73939,-3.41678
209,6.967,-1.834,9.905,5.820,-27.21189,-3.76324,7.30782
210,7.000,-2.456,8.256,3.857,16.53360,2.21417,12.34612
211,7.033,-1.732,6.893,5.905,-3.17986,8.88286,3.37653
212,7.067,-1.974,7.563,4.149,-12.66891,-1.16475,10.51112
213,7.100,-0.181,8.522,3.457,2.47890,1.06465,3.10216
214,7.133,-0.639,9.822,3.508,20.06814,-10.57081,2.89017
215,7.167,-1.521,11.266,2.949,19.48964,-4.88423,-13.64874
216,7.200,-2.645,9.600,1.356,22.46806,-4.36594,-14.54283
217,7.233,-2.839,7.312,2.714,23.31324,7.00665,-11.86271
218,7.267,-1.773,5.874,2.708,-1.56150,13.41613,-10.74471
219,7.300,-1.272,4.810,1.136,-20.01728,9.56274,-14.98350
220,7.333,-2.329,6.263,0.424,-45.70286,29.38493,-31.70284
221,7.367,1.821,16.782,7.133,-29.08425,67.96441,-17.32576
222,7.400,3.258,16.381,4.529,-12.56495,-6.94059,5.39002
223,7.433,-1.866,12.677,6.489,-11.02099,-17.51390,-9.29120
224,7.467,0.496,11.511,5.257,-6.47803,-18.33469,-6.16062
225,7.500,1.918,8.078,3.849,10.57215,7.40417,-8.34823
226,7.533,1.680,5.371,5.824,20.52533,-4.27918,-13.51817
227,7.567,-0.312,5.017,4.733,3.24703,-6.25521,-15.35321
228,7.600,-0.606,7.089,4.445,2.07650,15.85038,-2.02180
229,7.633,1.659,10.426,4.620,13.92747,31.49571,8.92976
230,7.667,0.997,10.051,4.540,21.34343,18.98344,16.90869
231,7.700,1.847,8.826,3.759,3.30014,11.90727,17.62480
232,7.733,2.769,9.256,3.317,0.54412,8.41146,18.80329
233,7.767,2.190,8.721,1.172,-1.86411,-3.77068,25.54467
234,7.800,2.152,7.085,-1.169,7.75468,-18.92675,36.50146
235,7.833,2.652,6.163,-0.243,-8.13334,-46.37039,41.29992
236,7.867,-8.338,18.832,11.384,-40.18372,9.33907,-15.45544
237,7.900,-1.030,9.643,1.573,-2.35565,3.42716,-6.88891
238,7.933,-0.551,8.039,7.285,-5.92591,18.03380,-0.56477
239,7.967,-1.600,9.317,5.716,-34.54421,-6.54174,9.52055
240,8.000,-2.469,9.808,5.031,-2.60003,-0.79982,7.44095
241,8.033,-1.853,9.300,4.973,-13.15560,-1.62224,-1.37552
242,8.067,-1.497,7.731,4.353,1.74839,-6.89439,2.38256
243,8.100,-0.868,7.576,5.045,3.81154,-11.83128,-0.01693
244,8.133,-1.483,9.180,4.157,5.98431,-11.45399,-7.64002
245,8.167,-1.757,9.715,3.434,18.87524,-9.76950,-11.04113
246,8.200,-2.490,8.287,2.442,30.53766,-5.72088,-8.80215
247,8.233,-2.511,8.972,3.025,21.72965,6.94603,-2.41836
248,8.267,-2.022,9.549,1.910,22.76084,12.99627,-9.91818
249,8.300,-1.621,7.221,1.147,8.79337,11.16616,-12.66058
250,8.333,-1.898,5.783,-0.920,-0.30288,8.68436,-20.93889
251,8.367,-3.273,8.683,4.753,-30.04456,73.20964,-27.67379
252,8.400,11.847,19.613,10.089,9.60718,-44.87198,23.82398
253,8.433,1.220,10.557,2.830,34.93220,-51.14622,-23.77918
254,8.467,-0.582,9.576,7.316,13.61327,-24.35601,-12.74097
255,8.500,0.256,7.157,3.665,18.48193,0.57589,-10.66959
256,8.533,0.425,5.803,5.121,21.78536,11.13872,-9.65037
257,8.567,0.354,5.620,5.097,11.01103,8.62968,-4.38186
258,8.600,1.007,6.494,5.823,-4.15972,9.13983,2.32394
259,8.633,1.356,7.979,5.861,-4.83139,7.66497,6.49425
260,8.667,1.011,9.468,5.577,-3.04349,-0.11921,8.12153
261,8.700,0.768,9.882,4.537,-2.56074,-5.58463,2.21333
262,8.733,1.199,9.662,3.315,-0.59659,-8.59137,9.55013
263,8.767,2.542,8.911,2.294,8.18605,-15.42926,27.08874
264,8.800,2.044,7.807,0.802,5.05395,-27.31990,30.91520
265,8.833,1.704,6.543,-1.410,-14.00428,-52.39012,31.54395
266,8.867,2.086,6.812,1.123,-41.91117,-63.63958,29.37911
267,8.900,-15.476,19.613,16.899,-38.54450,7.91551,-42.96290
268,8.933,-1.458,6.532,1.709,0.00854,28.63789,0.17407
269,8.967,-0.738,7.651,7.940,-21.57479,9.13080,9.30103
270,9.000,-3.441,10.400,5.205,-38.39177,0.57186,0.86055
271,9.033,-2.761,8.744,4.110,7.43788,15.02518,-6.28444
272,9.067,-2.360,6.192,5.728,-17.64856,18.56485,-0.57346
273,9.100,-0.550,6.325,4.603,-14.64957,10.42470,5.02891
274,9.133,-0.238,7.554,3.708,-0.94586,0.26788,4.58736
275,9.167,-0.812,9.949,3.262,4.96255,2.02095,5.81364
276,9.200,-1.920,13.002,2.880,13.49755,8.79013,-9.80008
277,9.233,-2.650,11.983,2.095,38.97680,-0.55853,-17.87374
278,9.267,-2.551,8.947,2.752,42.95456,5.40199,-17.61139
279,9.300,-2.800,7.883,3.175,28.01408,16.55452,-16.02701
280,9.333,-1.559,6.103,2.251,6.58474,26.72749,-20.53804
281,9.367,-1.641,4.822,2.256,-24.83829,18.90624,-19.06045
282,9.400,-2.378,5.650,2.179,-47.93908,20.55509,-22.71180
283,9.433,-0.114,11.868,7.214,-25.38276,40.92875,-1.82814
284,9.467,3.462,17.371,6.390,-12.75683,-8.86694,14.68329
285,9.500,-1.197,10.382,4.002,13.34999,-16.97232,-17.38701
286,9.533,-0.009,11.802,4.457,-8.16161,13.13684,-12.15792
287,9.567,2.088,9.947,3.252,18.86189,18.74837,-5.13302
288,9.600,2.057,8.203,4.943,8.04379,9.79656,-3.17123
289,9.633,1.280,8.481,4.087,2.74501,13.95596,-8.21961
290,9.667,0.436,6.626,4.267,0.60332,17.55936,-4.07932
291,9.700,1.455,6.784,5.137,3.92297,11.20706,2.28121
292,9.733,1.443,8.047,4.785,0.90790,7.20233,9.71416
293,9.767,1.640,8.489,4.182,-0.00463,5.86949,16.23482
294,9.800,1.833,8.747,3.707,0.07709,-6.53135,19.30580
295,9.833,2.115,8.687,2.861,-1.72713,-19.03225,19.19287
296,9.867,2.040,7.794,1.432,-12.97785,-28.07039,22.32391
297,9.900,2.452,7.359,0.326,-28.38758,-36.04499,25.13333
298,9.933,0.033,10.518,3.909,-21.68401,-22.67170,16.49085
299,9.967,-6.918,16.635,5.527,-15.56625,-32.35841,-22.94104
300,10.000,-1.304,11.780,2.402,30.65610,30.25735,-5.36375
301,10.033,-1.009,12.487,7.179,9.21071,0.66526,-2.94653
302,10.067,-1.219,9.235,4.914,25.66606,-17.28170,2.77372
303,10.100,-1.815,6.646,5.331,5.71196,-14.21991,3.19902
304,10.133,-1.545,6.377,4.102,1.41273,-18.27141,0.96199
305,10.167,-0.585,5.738,4.622,10.75717,-24.30332,1.43735
306,10.200,-0.663,5.851,5.780,4.34895,-27.92343,-5.01335
307,10.233,-1.642,8.164,4.868,-4.55161,-22.10447,-18.92321
308,10.267,-1.867,9.932,3.431,2.50968,-15.75305,-17.77423
309,10.300,-3.032,10.021,3.035,17.81660,-4.51609,-8.61910
310,10.333,-3.323,9.446,2.832,14.01497,13.60002,-13.06959
311,10.367,-1.993,8.792,1.622,4.61133,20.47700,-21.65851
312,10.400,-2.265,7.321,-0.088,-19.57569,15.85149,-15.58496
313,10.433,-2.494,6.113,-0.557,-25.85777,36.04664,-27.78756
314,10.467,-1.164,13.672,10.041,-9.19169,82.32631,-9.08275
315,10.500,5.707,17.421,5.094,-28.58915,-12.55978,21.00334
316,10.533,-1.951,12.424,1.623,10.93442,-8.11535,-16.79047
317,10.567,-1.530,8.209,4.516,-27.71172,15.16460,-11.08420
318,10.600,0.919,9.887,4.734,29.57977,24.06467,1.73772
319,10.633,0.950,5.352,7.175,16.44693,16.15824,2.74551
320,10.667,0.932,5.350,4.551,-11.38957,10.17437,-6.81066
321,10.700,1.280,7.259,4.534,-7.06470,8.26396,0.26288
322,10.733,1.126,9.728,4.235,10.17035,12.08499,12.12445
323,10.767,0.747,12.177,4.572,12.61573,6.51458,11.62546
324,10.800,1.613,11.541,2.985,14.06633,7.21133,11.95678
325,10.833,0.746,9.568,2.414,11.99881,9.89366,19.52186
326,10.867,1.842,7.496,2.803,5.82599,6.26555,19.83919
327,10.900,2.535,4.855,1.892,-6.34914,-22.82786,20.78118
328,10.933,2.098,4.995,-0.144,-5.46514,-29.63965,20.71101
329,10.967,2.729,9.023,3.998,-51.00023,-37.61464,10.56266
330,11.000,-10.875,19.613,9.057,-36.41437,-48.14018,-29.00541
331,11.033,-0.785,8.969,1.259,24.07968,28.67349,6.97407
332,11.067,1.187,12.155,10.881,-15.53133,-5.73134,4.70943
333,11.100,-2.221,10.733,4.503,0.97194,-9.08428,-1.38362
334,11.133,-1.175,8.060,6.087,-1.47457,-10.54966,-1.62807
335,11.167,-2.002,7.519,3.427,-17.14413,-9.79978,-1.06362
336,11.200,-1.496,6.728,4.706,1.34243,-3.57159,2.71630
337,11.233,-1.392,6.611,5.554,-3.52422,-6.13755,0.85827
338,11.267,-1.014,8.142,4.655,-2.40184,-3.15057,-5.09056
339,11.300,-1.037,8.670,4.545,-0.77532,-9.13239,-14.68079
340,11.333,-1.694,8.760,4.594,4.67508,-8.87142,-14.42955
341,11.367,-1.732,8.744,3.809,-2.76981,-5.82107,-8.64506
342,11.400,-2.405,9.090,0.753,17.47982,-10.99347,-10.41941
343,11.433,-2.740,9.446,-0.711,32.94681,-3.69778,-18.63792
344,11.467,-2.049,6.402,-0.091,11.53524,2.43526,-18.92717
345,11.500,-3.871,6.424,1.920,-42.86302,45.44012,-18.91835
346,11.533,6.771,19.613,9.269,19.23774,13.46105,23.63657
347,11.567,-0.573,11.312,2.783,-7.76254,-10.32409,-4.52997
348,11.600,-1.042,8.419,10.039,-5.29664,-10.00346,-15.30811
349,11.633,1.058,8.182,4.511,-4.17979,-19.07142,-11.21274
350,11.667,1.293,6.052,3.639,25.06620,8.42387,-9.63639
351,11.700,0.905,6.500,5.641,4.94660,-9.34882,-8.41617
352,11.733,0.737,9.779,4.189,5.55825,-3.05412,0.31172
353,11.767,-0.178,9.935,3.809,14.66467,1.94299,8.90661
354,11.800,-0.108,10.641,5.167,21.03049,4.40841,6.83686
355,11.833,1.129,10.568,3.597,14.53926,11.76199,2.11172
356,11.867,0.932,9.194,3.090,16.57901,12.79938,3.49469
357,11.900,0.616,7.584,3.763,17.82520,11.63302,4.58312
358,11.933,1.167,6.498,4.555,4.74868,2.49835,4.28224
359,11.967,1.808,5.993,3.003,-26.56204,-11.08930,7.98697
360,12.000,3.314,6.527,0.902,-49.27748,-46.13059,15.39082
361,12.033,1.902,6.478,0.422,-21.78527,-47.79402,16.20426
362,12.067,-7.313,17.632,12.959,-3.41146,-3.08396,-32.70943
363,12.100,-3.240,12.549,0.980,-46.08771,15.69749,10.41644
364,12.133,-1.742,13.226,8.016,18.90717,30.55349,8.06448
365,12.167,-2.280,10.102,7.742,-0.84109,-2.06337,7.22202
366,12.200,-1.606,9.139,4.751,4.44515,1.57890,2.34817
367,12.233,-1.368,8.142,4.561,-0.21541,-8.20407,8.11051
368,12.267,-1.591,6.205,4.056,-4.29983,-3.35780,3.00388
369,12.300,-1.133,5.808,5.156,2.32254,2.17134,0.84622
370,12.333,-0.639,7.230,5.531,-0.85126,-2.91538,-8.93483
371,12.367,-1.425,8.430,4.633,-2.75826,-9.38152,-7.29884
372,12.400,-2.357,8.738,3.704,6.75193,-7.67999,-5.41677
373,12.433,-2.575,8.651,2.885,13.47695,2.16070,-7.05209
374,12.467,-2.006,9.345,2.147,10.44335,6.53025,-18.81920
375,12.500,-2.361,8.785,0.453,13.26410,7.30761,-29.93074
376,12.533,-3.369,7.730,-0.182,-4.62741,20.33108,-28.18651
377,12.567,-3.330,5.810,1.946,-26.87219,72.72896,-34.10792
378,12.600,7.067,19.613,12.213,30.59380,38.61199,10.55224
379,12.633,-0.378,6.319,3.089,-0.69929,-54.53370,-7.47984
380,12.667,-1.176,9.880,3.591,4.84821,-2.06794,-6.69365
381,12.700,1.918,6.810,5.503,-17.33137,-7.05552,-2.52460
382,12.733,0.816,5.220,4.588,24.68617,20.58066,-8.21506
383,12.767,0.720,4.140,6.417,10.34976,8.88095,-1.95669
384,12.800,1.145,5.888,3.891,-6.66683,17.23393,-2.19314
385,12.833,0.773,10.003,4.431,-4.30650,14.48065,13.23283
386,12.867,1.623,13.122,4.199,15.11902,1.00280,19.27832
387,12.900,1.738,11.696,3.355,16.24633,-3.94863,10.70699
388,12.933,1.961,9.914,2.404,13.25346,-6.79134,11.75318
389,12.967,1.856,7.328,2.314,3.76084,-14.09519,18.10001
390,13.000,1.847,4.830,1.836,-6.06310,-32.68230,23.22030
391,13.033,1.192,5.288,-0.218,-24.07300,-36.57651,30.87005
392,13.067,3.289,7.685,2.895,-42.33517,-45.27477,21.25772
393,13.100,-11.348,19.562,13.631,-15.08676,-13.51095,-51.35343
394,13.133,-3.635,10.153,-0.289,-15.26867,41.79418,4.80622
395,13.167,-1.179,13.352,7.487,21.79286,16.79909,8.50744
396,13.200,-3.007,10.588,5.969,-0.91619,-6.86233,8.30510
397,13.233,-1.165,9.052,5.535,0.90854,-1.05856,6.96334
398,13.267,-0.951,7.123,4.414,-3.71228,-11.89372,1.99794
399,13.300,-1.091,5.180,4.776,3.82103,-12.79701,0.84720
400,13.333,-0.507,5.728,5.089,-2.81738,-15.66701,-5.99032
401,13.367,-0.539,7.860,3.560,-1.56574,-12.93017,-18.06363
402,13.400,-2.296,9.279,3.144,4.71304,-11.69376,-23.43345
403,13.433,-3.545,8.318,2.693,6.62088,-0.22904,-19.04637
404,13.467,-3.087,8.182,2.422,-9.35937,16.60716,-10.67278
405,13.500,-1.558,8.882,0.900,-26.67654,22.12379,-19.27970
406,13.533,-1.243,7.411,0.804,-21.95060,17.77539,-20.51184
407,13.567,-2.481,6.251,4.341,-21.36426,32.97612,-13.28736
408,13.600,3.908,15.795,10.217,27.52526,0.71171,5.52636
409,13.633,3.588,16.139,4.793,-15.53198,-7.36687,-17.19617
410,13.667,-2.359,11.958,6.693,2.57989,-28.33621,-12.40812
411,13.700,-0.466,10.604,4.665,25.42677,9.61021,-0.37904
412,13.733,0.463,7.372,5.564,21.30739,19.43830,1.04944
413,13.767,1.337,6.595,5.152,12.47768,16.54181,-4.42406
414,13.800,1.065,5.844,4.123,1.76458,17.16598,-4.64703
415,13.833,0.060,6.036,3.465,-9.60002,17.63913,-0.36843
416,13.867,0.871,8.763,3.661,9.47678,20.92987,13.47432
417,13.900,2.347,11.456,3.914,6.45906,3.50642,19.06893
418,13.933,2.804,10.849,2.047,6.40447,3.45461,10.98742
419,13.967,1.953,10.030,1.998,-4.17108,-4.54311,13.31225
420,14.000,1.779,7.290,0.725,-5.03666,-14.58774,20.47436
421,14.033,1.977,4.868,0.923,-15.51393,-42.29370,34.12344
422,14.067,2.107,7.602,8.945,-48.93413,-20.47409,5.13925
423,14.100,-10.580,15.371,8.081,-60.61718,-68.59357,-14.13787
424,14.133,-2.667,11.874,3.553,-5.13137,22.91105,6.40730
425,14.167,-1.442,14.393,5.977,19.62173,5.70221,3.47807
426,14.200,-2.237,10.291,5.185,25.98054,5.74661,-0.76009
427,14.233,-1.813,9.225,5.285,5.67010,7.17983,-0.03647
428,14.267,-1.704,7.741,3.334,6.16462,-4.20715,10.09806
429,14.300,-0.691,6.278,3.975,10.45421,-10.53456,9.26278
430,14.333,-0.102,6.019,4.438,8.91729,-14.02208,6.80003
431,14.367,-0.998,7.594,4.534,0.21195,-17.44275,-10.18002
432,14.400,-1.935,8.553,2.615,14.80333,-20.17213,-17.99624
433,14.433,-2.959,8.645,3.212,19.25233,-17.53326,-14.84935
434,14.467,-2.039,8.771,2.555,8.91069,-1.00874,-23.51796
435,14.500,-2.166,8.136,2.018,3.21228,-0.66407,-25.53499
436,14.533,-2.395,6.505,1.336,-15.85663,1.69817,-26.25821
437,14.567,-2.460,5.906,1.956,-29.41414,33.95163,-25.53689
438,14.600,0.800,13.041,10.748,10.77741,40.77260,1.46520
439,14.633,2.778,15.108,8.157,-39.88557,10.15400,8.29629
440,14.667,-0.270,13.013,5.893,8.20714,-22.33383,-14.35994
441,14.700,0.347,11.484,5.282,13.66995,-14.43076,-12.29081
442,14.733,0.437,8.436,4.291,32.00574,14.31347,-5.64698
443,14.767,0.948,7.385,4.325,11.49925,12.83958,-4.54696
444,14.800,1.357,6.290,3.223,8.19205,15.25075,0.51458
445,14.833,0.718,4.977,4.591,8.57944,13.31490,3.84863
446,14.867,0.580,6.959,5.081,-9.37624,7.16494,3.97080
447,14.900,1.426,10.219,4.584,-7.41819,7.46654,11.02850
448,14.933,1.980,11.105,3.867,3.83138,0.04158,16.54562
449,14.967,1.415,9.435,3.561,0.04261,-8.41424,13.18292
450,15.000,1.498,8.491,2.578,-13.36355,-15.45403,11.90607
451,15.033,1.824,7.475,1.851,-28.65187,-19.19503,13.97446
452,15.067,1.285,5.731,0.773,-43.86342,-27.40770,18.37832
453,15.100,1.610,4.307,1.053,-50.77212,-33.14113,21.73667
454,15.133,-2.996,14.376,12.999,-25.75630,43.43912,-12.61236
455,15.167,-4.529,12.547,3.234,-41.33417,-21.77044,17.19189
456,15.200,1.101,13.510,3.518,-8.99760,48.81758,15.17356
457,15.233,-1.803,15.360,7.335,36.98951,15.41707,4.04652
458,15.267,-2.311,9.002,5.789,20.21487,-8.43505,-12.21363
459,15.300,-3.009,7.265,4.257,5.81249,3.64997,11.26606
460,15.333,-0.742,7.008,3.580,8.19484,13.76275,15.76617
461,15.367,-0.019,5.439,4.668,14.60965,-0.30940,5.15835
462,15.400,-0.086,4.852,5.288,17.72321,-14.97258,0.58101
463,15.433,-0.300,7.371,3.459,-5.49569,-23.39482,-3.08130
464,15.467,-1.142,11.326,2.183,9.32893,-31.84538,-10.49993
465,15.500,-2.947,12.664,2.762,30.16196,-24.37607,-18.25050
466,15.533,-4.019,10.640,2.769,33.14717,-14.42139,-21.97887
467,15.567,-3.395,8.572,2.910,15.63716,-1.72400,-7.37401
468,15.600,-2.218,7.753,2.895,-5.49254,11.20391,-6.63767
469,15.633,-1.760,5.827,3.056,-28.01265,10.88606,-7.51175
470,15.667,-1.573,4.838,1.407,-23.71880,12.57272,-15.39015
471,15.700,-2.778,6.232,2.280,-36.71836,45.70356,-38.59958
472,15.733,4.647,18.177,7.245,-4.21220,24.61564,5.83593
473,15.767,3.114,13.081,3.857,-11.23534,-24.68673,2.49800
474,15.800,-3.658,11.189,6.467,-13.28348,-9.78778,-24.86830
475,15.833,-0.943,11.188,4.333,-13.35266,0.05364,-10.33443
476,15.867,2.033,8.743,3.788,14.46072,26.60731,-6.46039
477,15.900,0.863,7.506,5.896,10.31192,8.59561,-3.94575
478,15.933,0.580,7.823,4.272,-2.46462,9.42180,-9.09257
479,15.967,0.181,7.272,4.827,-2.56624,12.23155,-4.00150
480,16.000,0.649,7.801,4.155,0.77589,9.08690,-1.74296
481,16.033,0.988,10.331,3.709,-1.94956,10.90834,4.37744
482,16.067,1.820,10.461,2.434,8.74637,10.23276,12.07045
483,16.100,2.167,9.558,2.340,15.19964,-0.30133,11.72718
484,16.133,2.161,8.630,1.728,12.59940,-8.16031,16.71743
485,16.167,1.748,7.117,1.747,4.47775,-20.55129,20.30155
486,16.200,2.050,5.651,0.613,-18.42008,-38.99583,26.88142
487,16.233,2.604,5.302,1.328,-34.46113,-52.05769,28.89215
488,16.267,-10.876,18.398,14.998,-19.90175,28.26219,-30.35220
489,16.300,-4.080,10.676,1.454,-21.25045,34.39338,7.12139
490,16.333,0.212,14.346,5.285,21.27996,33.53762,18.48156
491,16.367,-3.012,13.135,6.987,1.90471,-3.99816,-1.26039
492,16.400,-3.034,9.276,4.072,11.60874,-0.79403,-6.05784
493,16.433,-2.556,7.517,5.095,4.42832,4.90269,7.96165
494,16.467,-1.002,7.082,4.175,1.21278,3.77456,12.50976
495,16.500,-0.782,7.275,4.364,7.92784,-6.50735,13.50266
496,16.533,-0.170,7.574,4.647,5.14156,-16.64684,10.17625
497,16.567,-0.489,7.489,3.694,8.25584,-20.90879,-6.87312
498,16.600,-2.376,8.321,4.264,1.03170,-24.56095,-11.50432
499,16.633,-2.900,8.539,3.251,0.23760,-18.31913,-11.30682
500,16.667,-2.891,8.617,2.741,4.11384,-7.78237,-12.31535
501,16.700,-2.491,7.682,2.549,-12.58960,-0.45231,-13.30312
502,16.733,-2.779,6.711,2.164,-26.26478,12.53984,-20.18221
503,16.767,-3.079,6.656,1.004,-41.39810,21.55878,-17.83085
504,16.800,-2.466,5.814,0.132,-47.12015,41.21309,-19.35325
505,16.833,-1.905,9.323,7.004,-10.92214,54.69636,4.41555
506,16.867,6.845,16.232,8.885,-62.22434,3.07587,31.62449
507,16.900,0.752,10.876,-0.081,-9.15465,-7.83823,-15.84556
508,16.933,-1.327,11.502,6.484,-37.66582,-5.90797,-22.45404
509,16.967,-0.295,12.315,1.511,-29.46909,1.58621,-17.17410
510,17.000,0.589,10.387,2.779,2.96473,10.59664,0.29153
511,17.033,0.625,8.948,4.334,-19.14737,-4.25106,-10.45453
512,17.067,0.410,9.491,3.832,-14.79589,-5.61526,-7.72923
513,17.100,0.822,10.275,3.082,-4.97336,-4.69663,-8.58967
514,17.133,0.698,10.110,2.997,0.09719,-5.10851,-9.28642
515,17.167,0.788,9.614,2.779,4.26213,-7.04387,-5.79840
516,17.200,0.201,9.007,3.311,-2.85534,-7.71037,-3.88246
517,17.233,0.716,9.711,2.873,3.26276,-4.15439,-3.30716
518,17.267,1.030,9.356,2.525,-3.14877,-5.55696,-6.87947
519,17.300,1.053,9.560,2.407,-2.44868,-7.26100,-3.95250
520,17.333,1.071,9.870,2.657,2.39310,-8.12579,-2.13141
521,17.367,0.953,9.068,2.278,1.97985,-9.84281,-1.80852
522,17.400,0.942,10.067,2.517,19.77344,-4.67860,-4.27543
523,17.433,1.570,9.359,1.433,14.88443,-26.63702,-2.80098
524,17.467,1.984,7.612,1.975,-4.67164,-12.47457,0.84305
525,17.500,1.650,6.778,3.399,-26.40418,-20.94115,-2.46579
526,17.533,1.262,8.343,3.741,-43.94633,-18.19776,-6.89868
527,17.567,1.309,12.458,3.961,-31.47036,-22.81063,-23.62095
528,17.600,1.219,11.772,2.429,-14.68208,-38.95840,-26.46049
529,17.633,-0.501,9.789,4.660,-24.83945,-56.08693,-14.04092
530,17.667,-0.408,10.982,4.231,-16.65940,-53.05952,-5.65870
531,17.700,-0.861,12.251,3.332,-0.33771,-85.91960,-15.96760
532,17.733,-1.780,10.411,1.438,12.38018,-88.45728,-12.87267
533,17.767,-1.669,8.303,3.332,9.81233,-88.94663,-8.24511
534,17.800,-0.891,9.240,1.895,7.06026,-93.43968,-13.15156
