frame_number,sync_timestamp,accel_x,accel_y,accel_z,gyro_x,gyro_y,gyro_z
0,0.000,0.390,8.780,2.215,4.51908,-9.61832,-3.60305
1,0.033,0.709,9.472,2.351,-4.44778,-11.43766,-3.32305
2,0.067,0.748,10.308,2.117,2.43890,-14.32834,-5.21339
3,0.100,0.306,10.728,2.054,16.12950,-4.39721,-11.97676
4,0.133,-0.535,10.102,1.460,15.31832,7.03778,-13.94669
5,0.167,0.604,7.511,1.335,2.85501,19.31045,-6.11710
6,0.200,1.712,8.760,2.708,-19.13741,0.09147,2.54969
7,0.233,3.029,11.793,2.959,-2.87049,-12.37020,8.22942
8,0.267,0.783,10.867,2.253,10.47761,-20.09298,6.81184
9,0.300,-0.046,9.278,2.071,-5.48715,-13.87072,2.72535
10,0.333,-0.479,9.547,1.575,-21.42779,-1.46584,4.09145
11,0.367,-0.531,9.885,2.395,2.14853,-1.18354,7.52617
12,0.400,0.045,9.251,2.160,5.49636,-6.15984,8.19851
13,0.433,0.244,9.267,2.165,-10.79055,-4.92604,1.37940
14,0.467,-0.124,9.933,2.334,-10.64210,-9.30780,-1.11705
15,0.500,-0.180,9.730,2.421,2.87771,-9.53434,1.01516
16,0.533,-0.073,9.502,2.611,-3.62516,-12.36387,1.24185
17,0.567,-0.339,10.437,2.365,-8.50666,-12.51130,0.94902
18,0.600,-0.709,10.436,2.145,-3.86253,-14.69464,1.49624
19,0.633,-0.638,9.507,1.755,-2.84712,-10.80194,-0.60045
20,0.667,-0.425,9.163,1.931,-7.17269,-7.21641,0.99265
21,0.700,-0.773,9.627,1.769,-10.47330,-1.85508,0.30536
22,0.733,-0.706,9.982,1.569,-8.71238,4.61795,-2.06856
23,0.767,-0.313,9.946,1.488,-12.52143,8.49846,-4.36369
24,0.800,0.223,9.977,1.822,-12.25200,11.40451,-5.10686
25,0.833,0.380,10.265,1.704,-6.33455,8.90887,-8.25162
26,0.867,0.662,10.342,1.798,0.81394,6.18070,-10.29256
27,0.900,0.481,10.190,1.733,9.99971,9.32025,-15.33568
28,0.933,-0.014,10.186,2.095,15.67144,17.12194,-20.52658
29,0.967,0.294,9.614,1.968,19.80376,17.78884,-17.00552
30,1.000,0.575,9.017,2.310,22.03069,12.16060,-10.31322
31,1.033,0.935,9.525,1.303,10.37476,15.55007,6.19537
32,1.067,1.147,12.309,1.045,6.18306,20.25122,5.77949
33,1.100,1.099,10.961,0.943,29.95227,22.07616,4.42706
34,1.133,1.656,8.697,1.951,38.44567,11.84546,19.58944
35,1.167,1.938,7.966,-0.090,23.24316,-7.06771,33.99477
36,1.200,2.469,7.192,-1.418,16.12836,-28.37976,37.96168
37,1.233,4.060,6.669,-1.655,8.54339,-57.26057,27.34170
38,1.267,1.545,15.267,5.984,-40.07267,7.50363,-24.22188
39,1.300,-7.674,19.025,5.079,4.90864,-10.00934,-17.50129
40,1.333,1.516,10.895,3.887,80.12974,12.46709,17.80577
41,1.367,0.653,8.555,4.502,9.00678,-37.64079,6.11070
42,1.400,-0.565,7.891,3.619,22.98944,-37.72075,10.14818
43,1.433,-2.164,7.846,4.346,-13.66992,-34.62304,23.78572
44,1.467,-1.793,7.823,2.732,-12.99488,-18.58705,12.30608
45,1.500,-0.513,7.972,3.820,-10.37904,-28.07719,8.28329
46,1.533,-0.042,9.096,4.284,-2.39895,-30.90690,1.82935
47,1.567,-1.380,9.159,3.562,-3.64333,-24.02922,-1.49710
48,1.600,-2.269,9.796,3.094,-14.25815,-18.05691,3.37712
49,1.633,-1.587,9.835,3.000,-3.90671,-16.17925,2.79422
50,1.667,-1.142,9.771,2.819,0.86416,-13.77525,0.63206
51,1.700,-1.840,9.367,2.931,-0.85118,-7.99394,-2.38272
52,1.733,-2.314,8.988,3.327,-4.14782,-5.06865,4.39410
53,1.767,-1.930,8.763,2.565,-6.12242,-2.32839,6.76683
54,1.800,-1.976,8.848,2.593,-13.70896,3.49328,6.32531
55,1.833,-2.616,9.859,3.006,-15.56870,8.68918,8.63143
56,1.867,-2.510,9.607,2.865,-7.04163,14.64651,11.28844
57,1.900,-2.063,9.311,2.352,-9.65398,17.32431,11.58563
58,1.933,-1.784,9.283,2.599,-16.94168,14.19532,10.68566
59,1.967,-1.638,9.466,2.247,-14.37880,20.73945,3.18208
60,2.000,-1.232,9.352,2.176,-7.20855,23.38834,-1.60894
61,2.033,-1.593,9.419,1.957,1.03780,17.26527,-4.82660
62,2.067,-1.825,9.161,2.565,6.68822,19.42952,-4.93457
63,2.100,-1.763,9.229,1.976,-3.33070,26.84489,-9.31755
64,2.133,-1.459,9.717,1.839,-2.66472,27.25153,-10.85462
65,2.167,-1.292,9.949,1.614,0.42549,22.91344,-10.40218
66,2.200,-1.502,9.988,1.394,3.55457,22.69525,-11.99883
67,2.233,-1.516,10.007,1.760,3.98358,22.70059,-10.77097
68,2.267,-1.333,9.884,1.766,7.15241,24.92999,-9.52436
69,2.300,-1.332,9.950,1.863,2.45770,23.65700,-10.05918
70,2.333,-1.110,9.996,2.161,2.84950,27.14107,-13.16876
71,2.367,-0.984,10.255,2.435,5.44654,28.83959,-19.22379
72,2.400,-1.023,10.248,2.722,14.39989,28.53828,-25.44955
73,2.433,-0.939,9.499,3.766,15.75096,31.74093,-29.42130
74,2.467,-0.545,9.135,4.187,8.18013,25.38685,-36.52418
75,2.500,-0.338,11.080,4.424,3.30275,21.00983,-37.41086
76,2.533,-1.550,10.862,4.530,15.63996,35.11435,-27.95659
77,2.567,-0.016,7.192,3.784,35.03290,39.20232,10.88098
78,2.600,1.503,6.687,5.239,53.58332,33.96081,37.09851
79,2.633,2.805,12.976,3.875,-31.43267,12.25422,-6.90894
80,2.667,3.621,12.158,-0.482,6.34851,26.56229,-3.35687
81,2.700,4.487,6.259,0.185,29.38823,-7.38946,17.38514
82,2.733,4.173,4.105,-2.178,60.73113,-13.06831,31.22896
83,2.767,2.845,4.734,-0.863,71.55935,-43.13933,23.88679
84,2.800,3.362,7.339,-0.461,-48.40329,-80.50455,31.77608
85,2.833,-3.316,19.383,18.765,-250.13740,56.28809,-65.81399
86,2.867,4.869,14.987,4.241,-21.98637,-65.88337,14.99484
87,2.900,-0.337,4.455,6.218,117.67901,-29.86536,44.66444
88,2.933,0.772,6.984,5.854,-11.91009,-74.53676,16.14864
89,2.967,-4.593,9.461,1.796,-86.04898,-59.14343,5.22462
90,3.000,-3.219,9.044,4.420,-36.75585,-30.76002,19.85335
91,3.033,-1.906,7.987,3.333,-13.90035,-39.02095,27.51969
92,3.067,-0.269,8.054,2.951,-6.88217,-49.48861,20.58673
93,3.100,-1.218,7.965,4.103,-22.41257,-52.03624,16.19435
94,3.133,-2.738,8.536,3.083,-17.74613,-40.45494,17.38786
95,3.167,-3.163,9.738,3.210,-9.46227,-31.97149,19.62301
96,3.200,-2.594,9.882,3.194,-2.87418,-26.40777,13.38403
97,3.233,-2.255,8.445,3.416,-9.09343,-16.24982,9.92831
98,3.267,-2.373,9.004,2.792,-21.60306,-17.26602,5.25307
99,3.300,-2.781,9.849,2.517,-8.12418,-1.90658,-4.78893
100,3.333,-2.276,8.386,2.613,-5.47531,6.75925,-9.86878
101,3.367,-2.367,9.497,2.176,-11.12494,10.76889,-12.99249
102,3.400,-2.769,10.266,2.033,1.79548,22.81290,-18.01668
103,3.433,-2.247,8.878,2.371,-2.19985,33.27481,-16.28503
104,3.467,-1.284,8.894,1.927,-11.70950,23.92409,-18.34539
105,3.500,-2.006,9.718,1.662,-9.50602,18.73044,-23.65242
106,3.533,-2.203,9.988,1.418,5.21793,21.30009,-22.69479
107,3.567,-2.218,9.800,1.471,7.06677,20.17949,-17.47970
108,3.600,-1.936,9.820,1.195,5.00330,19.68477,-11.87716
109,3.633,-1.639,10.238,1.255,4.90884,21.13889,-12.58227
110,3.667,-1.643,9.996,0.949,9.56058,22.12402,-13.97154
111,3.700,-1.567,9.799,1.210,14.15845,22.00759,-12.63171
112,3.733,-1.335,9.907,0.981,15.72358,24.29396,-8.78524
113,3.767,-0.862,9.882,1.243,15.37144,28.40961,-11.29260
114,3.800,-1.259,10.319,1.308,12.98926,27.00565,-11.11196
115,3.833,-1.148,10.722,1.154,25.18883,30.53152,-9.34747
116,3.867,-1.287,10.126,1.821,34.76426,34.18199,-6.03670
117,3.900,-0.902,9.120,1.920,23.76034,41.34360,-8.58762
118,3.933,0.269,9.741,2.271,4.16187,50.78691,-18.01683
119,3.967,0.275,10.754,3.172,3.98306,39.89222,-17.50837
120,4.000,-1.363,9.706,4.949,27.79736,21.97663,-6.38051
121,4.033,-0.737,8.361,5.896,27.81339,36.65213,-0.70577
122,4.067,1.813,8.417,5.768,36.94041,30.89152,1.33574
123,4.100,-0.012,8.445,7.037,52.79307,11.70516,16.86494
124,4.133,1.363,12.980,5.327,2.23578,22.45730,-9.46420
125,4.167,2.730,10.878,4.315,19.62476,24.00469,-15.51850
126,4.200,1.789,7.615,2.740,20.20798,6.32901,8.59189
127,4.233,1.346,6.324,-0.991,35.82205,-19.43444,27.17644
128,4.267,4.171,3.433,-0.354,32.10767,-71.64591,40.42575
129,4.300,6.373,4.993,2.322,-9.07181,-88.89961,34.46078
130,4.333,-2.013,15.495,10.434,-124.88511,-8.89951,-0.56018
131,4.367,-11.231,16.785,5.284,-51.89905,-72.01218,-27.94876
132,4.400,-3.564,5.488,-1.030,60.38064,54.32290,29.07021
133,4.433,-1.783,6.087,8.747,-11.71048,-9.85988,29.08544
134,4.467,-1.602,9.197,4.681,-72.32469,-31.58119,13.45635
135,4.500,-0.658,9.946,2.124,-3.40602,-14.10822,9.24630
136,4.533,-1.556,7.215,4.229,-2.76360,-20.96724,4.68150
137,4.567,-2.470,7.921,4.042,-18.53692,-29.54700,6.55886
138,4.600,-2.639,8.997,4.157,-13.72388,-18.15737,6.61824
139,4.633,-1.726,8.112,4.029,-17.18971,-20.36771,5.52989
140,4.667,-1.474,8.735,3.475,-18.03439,-20.03874,3.52611
141,4.700,-1.442,9.216,3.556,-10.64604,-25.63127,-0.99171
142,4.733,-2.411,8.982,3.135,-7.39559,-25.28373,-3.24860
143,4.767,-1.716,8.468,3.200,-9.44436,-25.47560,-3.33938
144,4.800,-1.260,8.663,2.986,-10.55672,-32.70158,-2.68924
145,4.833,-2.186,10.181,3.522,-9.80910,-40.40239,-2.10083
146,4.867,-2.771,9.952,3.360,17.96827,-36.73425,-5.53882
147,4.900,-3.448,9.450,2.926,10.10785,-18.91325,-1.66699
148,4.933,-2.729,9.125,2.829,-5.13049,-8.36061,-0.77644
149,4.967,-2.409,9.237,2.830,-9.86709,-2.58168,-5.55982
150,5.000,-2.589,9.853,2.880,-4.47066,3.95315,-10.82074
151,5.033,-2.423,9.236,2.669,4.54035,9.16250,-13.79690
152,5.067,-2.210,8.868,2.089,-6.55040,8.32452,-13.22558
153,5.100,-2.282,9.801,2.032,-11.35722,5.66249,-14.53268
154,5.133,-2.465,10.039,1.613,5.49656,4.94239,-17.95264
155,5.167,-2.530,9.613,1.627,10.11018,10.74312,-19.27623
156,5.200,-2.549,9.326,0.937,9.04864,15.11952,-17.14570
157,5.233,-2.066,9.349,0.595,12.77824,18.94735,-18.60983
158,5.267,-2.274,9.576,0.558,11.52362,22.26361,-16.41317
159,5.300,-2.105,9.291,0.599,9.95827,25.65517,-16.27848
160,5.333,-1.871,9.533,0.554,4.08836,33.65154,-18.59097
161,5.367,-0.338,10.919,1.227,1.17044,52.91085,-26.45070
162,5.400,-0.062,13.244,4.213,-22.49336,51.42798,-16.64408
163,5.433,-0.075,12.026,4.213,30.75469,-0.16563,-12.05613
164,5.467,-0.470,8.908,6.397,49.70928,16.33259,-22.08559
165,5.500,1.619,7.547,6.124,47.35199,23.21046,-13.57809
166,5.533,-0.080,7.647,4.965,32.80110,13.89642,-8.10561
167,5.567,-1.270,9.496,5.262,16.04742,35.57631,-7.79142
168,5.600,1.985,11.192,5.319,30.17046,43.46751,0.62881
169,5.633,1.649,7.850,5.342,18.09331,41.60756,1.03734
170,5.667,2.842,7.715,2.873,-7.96876,-3.32074,4.28696
171,5.700,4.307,8.642,0.023,20.09335,-46.30341,14.75422
172,5.733,6.686,6.119,-1.313,44.49785,-57.25851,51.08636
173,5.767,7.173,2.012,-1.246,39.73174,-131.47452,71.15542
174,5.800,2.923,5.851,-1.782,33.81478,-144.95997,43.01886
175,5.833,-6.947,19.613,17.487,-250.13740,-70.46446,-125.27646
176,5.867,5.770,3.771,5.336,-22.87877,-128.80895,-11.39574
177,5.900,-0.361,9.157,-6.024,170.62869,71.07438,35.41528
178,5.933,-2.229,5.917,10.077,-53.46843,-17.05122,8.03596
179,5.967,-2.915,6.063,2.706,-100.07252,-12.36788,20.28850
180,6.000,-2.681,9.038,3.100,3.33316,22.37867,16.58177
181,6.033,-2.101,7.671,3.994,-15.98550,2.09332,8.56647
182,6.067,-0.424,7.516,3.461,-21.63628,5.52293,7.31887
183,6.100,-1.878,8.641,4.625,-34.40443,8.31600,5.45614
184,6.133,-2.321,9.660,2.498,-28.44937,11.21966,1.08003
185,6.167,-1.764,9.183,2.580,-2.57108,8.91032,-1.53831
186,6.200,-2.105,8.701,3.162,-14.38986,7.55849,-3.51818
187,6.233,-1.810,8.478,3.097,-18.55647,7.58265,-0.44696
188,6.267,-2.424,9.096,3.241,-27.98914,4.46248,-1.67365
189,6.300,-2.382,9.790,2.128,-23.00039,11.09893,-4.78628
190,6.333,-2.198,9.461,2.701,-14.13341,10.60375,-6.15556
191,6.367,-2.282,9.544,2.163,-17.04592,14.04743,-6.02843
192,6.400,-1.997,9.522,2.201,-9.01413,20.15448,-5.23408
193,6.433,-2.152,9.706,1.925,-8.16464,22.98156,-7.25894
194,6.467,-1.469,9.464,1.124,-10.00724,14.37059,-4.28320
195,6.500,-1.594,9.811,1.403,-13.60830,11.23352,-7.43620
196,6.533,-2.424,10.340,1.634,-7.70713,20.28532,-7.93303
197,6.567,-1.745,9.766,1.570,1.56661,26.30659,-8.84750
198,6.600,-1.245,9.333,1.444,-0.08307,16.79508,-4.89768
199,6.633,-1.504,10.032,1.360,-8.14945,15.14465,-8.51466
200,6.667,-1.674,10.527,1.506,-1.71748,19.44499,-9.63278
201,6.700,-1.429,10.227,1.272,4.93537,14.49764,-9.49014
202,6.733,-1.377,10.517,1.242,11.32622,17.06745,-8.17782
203,6.767,-1.267,10.313,1.525,19.89507,15.89393,-13.05971
204,6.800,-0.934,9.764,1.597,24.81666,17.51919,-16.97709
205,6.833,-1.153,9.386,1.654,22.21156,23.09903,-20.87761
206,6.867,-1.053,9.310,1.583,19.60329,24.31766,-23.03049
207,6.900,-0.709,9.527,1.973,12.54973,27.89321,-23.74042
208,6.933,-0.311,10.294,1.946,13.11656,18.54490,-24.16565
209,6.967,-0.235,10.418,2.657,23.80663,10.34096,-17.04070
210,7.000,-0.505,9.555,3.663,31.54188,12.48087,-15.93127
211,7.033,-0.675,9.867,4.705,27.20067,6.03875,-18.96918
212,7.067,-0.275,9.393,5.241,40.31695,1.74518,-15.23975
213,7.100,-0.771,7.714,5.025,43.61086,11.03806,-0.55788
214,7.133,1.222,8.016,5.892,57.94373,7.86869,26.11876
215,7.167,2.585,11.900,6.885,37.92681,-3.09322,23.54440
216,7.200,1.985,10.667,1.536,7.59808,-2.93461,-14.89620
217,7.233,2.833,7.855,1.974,31.86586,-19.51549,-3.24361
218,7.267,2.179,5.946,-1.424,40.45579,-12.61301,19.50928
219,7.300,2.497,4.381,-0.242,18.95708,-55.33248,33.63293
220,7.333,4.188,5.745,0.020,-48.16996,-109.82238,43.73033
221,7.367,2.220,11.038,0.526,-69.11488,-128.32508,36.06862
222,7.400,-15.298,19.613,19.325,-113.69085,-36.59627,-44.50467
223,7.433,-5.786,9.958,1.932,-52.82266,4.54026,8.16429
224,7.467,-1.859,4.206,7.755,52.21778,30.89451,57.97592
225,7.500,-1.229,9.395,7.587,-65.10560,-58.90016,34.74870
226,7.533,-2.746,10.511,2.054,-6.89500,-9.26688,26.95421
227,7.567,-1.637,6.718,5.620,3.89648,-11.00498,26.58069
228,7.600,-2.811,6.012,3.206,-19.59549,-22.38215,19.71775
229,7.633,-2.626,6.602,4.814,-5.94115,-2.66940,15.27737
230,7.667,-2.599,8.154,4.401,-22.26964,0.16539,13.45294
231,7.700,-2.883,9.299,3.093,-16.52586,6.61870,6.26699
232,7.733,-3.258,8.537,3.882,-9.71990,7.70234,5.20104
233,7.767,-3.784,8.242,3.496,-17.34870,8.80925,4.24934
234,7.800,-3.335,8.839,3.079,-16.89301,14.10629,5.47328
235,7.833,-2.690,8.919,2.543,-16.71484,8.19874,4.13229
236,7.867,-2.198,8.397,2.136,-21.81689,2.45288,2.10684
237,7.900,-3.077,8.509,2.217,-32.15265,0.21387,-1.87024
238,7.933,-3.677,9.307,2.207,-31.23667,8.54713,-3.78886
239,7.967,-2.911,9.238,1.782,-29.15799,7.00283,-3.38427
240,8.000,-2.741,9.381,1.836,-25.83941,1.87766,-3.65670
241,8.033,-3.209,9.805,1.696,-18.99474,5.48349,-7.04834
242,8.067,-2.389,9.238,1.828,-7.98989,5.34107,-8.66154
243,8.100,-2.511,9.139,1.673,-3.36648,-1.86247,-13.94591
244,8.133,-2.874,9.309,1.417,0.31293,1.84990,-17.78371
245,8.167,-2.634,9.225,1.458,0.36131,1.83205,-18.93386
246,8.200,-1.757,9.807,1.214,6.64152,3.04576,-21.73288
247,8.233,-2.113,9.314,1.297,19.94125,1.75980,-20.92510
248,8.267,-2.494,9.323,1.059,20.49073,4.72464,-20.37511
249,8.300,-2.217,9.776,1.046,22.45775,12.53377,-19.74044
250,8.333,-1.796,9.611,0.932,31.71714,13.24221,-18.18070
251,8.367,-2.046,9.821,0.776,31.06350,14.06351,-17.76577
252,8.400,-1.566,10.415,0.986,22.68726,19.43502,-18.12981
253,8.433,-0.761,10.641,1.016,24.88290,19.47573,-20.97954
254,8.467,-1.127,11.276,2.350,7.36338,27.60874,-26.04335
255,8.500,-0.800,11.095,4.367,5.84591,11.81187,-18.19912
256,8.533,-1.882,8.539,5.658,20.74359,2.56177,-23.31270
257,8.567,-0.931,7.559,5.650,5.21580,16.63406,-22.88632
258,8.600,-0.266,8.250,5.234,3.09857,12.29108,-11.40512
259,8.633,-2.665,9.680,4.727,36.88306,15.35123,15.15648
260,8.667,-1.790,12.172,4.166,23.28612,45.69454,14.52079
261,8.700,2.796,11.478,3.270,4.70981,29.84004,-16.40437
262,8.733,2.816,8.163,2.078,11.39947,0.65924,0.33322
263,8.767,1.522,6.110,-2.115,33.35915,-21.19417,1.97682
264,8.800,4.477,2.595,-1.702,62.80156,-57.01475,26.03036
265,8.833,5.217,1.510,-0.539,61.36248,-86.95475,69.27549
266,8.867,-4.884,17.237,16.776,-185.16259,-95.64936,-58.92766
267,8.900,6.766,13.703,9.203,-130.47304,-91.62109,-32.46605
268,8.933,0.131,5.068,-0.273,180.90374,0.97222,55.73396
269,8.967,-2.699,7.461,8.784,25.70945,15.60260,20.79296
270,9.000,-2.796,6.941,3.984,-99.61797,-18.65633,13.77106
271,9.033,-1.630,10.288,1.810,-17.89418,-8.94248,4.23154
272,9.067,-1.670,7.483,3.285,25.27483,-9.79977,-0.42418
273,9.100,-1.499,5.418,5.061,-7.80750,-15.05319,0.27446
274,9.133,-1.610,8.653,4.818,-30.82943,-18.08429,5.44050
275,9.167,-2.476,10.059,2.731,-20.13313,-11.67435,1.24164
276,9.200,-2.382,8.579,3.084,-12.32789,-13.39665,3.84678
277,9.233,-2.192,8.346,3.431,-17.45983,-17.71635,1.19042
278,9.267,-1.870,8.902,3.368,-19.72498,-17.12692,-1.07052
279,9.300,-1.738,8.835,3.038,-24.52651,-18.25191,-3.16038
280,9.333,-2.541,9.095,2.597,-15.18601,-19.82688,-4.73026
281,9.367,-3.138,9.080,2.370,-8.50637,-14.71750,-5.00000
282,9.400,-2.954,8.698,2.193,-13.36664,-3.95409,-7.37407
283,9.433,-2.612,9.142,1.759,-21.12472,1.41225,-8.00005
284,9.467,-2.124,9.167,1.690,-15.79649,5.45512,-9.77358
285,9.500,-2.059,9.395,1.853,-15.51898,7.50372,-9.78672
286,9.533,-2.070,9.151,1.195,-14.09433,7.40973,-11.97708
287,9.567,-1.744,9.305,1.249,-15.10687,4.59033,-14.13486
288,9.600,-2.468,10.281,1.223,-15.53424,6.19088,-17.38164
289,9.633,-2.274,10.324,1.475,-9.15520,8.90337,-12.27478
290,9.667,-2.442,9.876,1.504,-7.49112,12.61832,-10.59543
291,9.700,-2.107,9.792,1.247,-2.55730,14.56490,-7.08399
292,9.733,-1.682,9.807,1.231,-3.63103,14.24428,-10.26464
293,9.767,-1.893,10.364,1.059,0.59284,15.57506,-13.34859
294,9.800,-2.131,10.870,1.008,14.33630,22.14529,-14.45037
295,9.833,-1.888,10.262,1.445,24.51648,27.55722,-13.63869
296,9.867,-1.638,10.096,1.491,24.45804,32.47607,-12.87526
297,9.900,-1.087,9.718,1.192,24.91589,35.41190,-13.51918
298,9.933,-1.503,9.745,0.959,19.68683,31.92123,-16.37923
299,9.967,-1.448,9.914,1.319,15.95164,37.22141,-18.78887
300,10.000,-0.934,10.202,1.951,18.51915,33.22889,-17.18315
301,10.033,-0.609,10.074,2.140,22.56993,26.13743,-13.00509
302,10.067,-0.559,9.777,2.747,23.33559,23.51699,-14.06254
303,10.100,-0.108,9.282,3.333,28.11460,17.95409,-17.90079
304,10.133,-0.167,9.073,4.311,24.68699,15.83715,-19.12214
305,10.167,-0.725,9.724,4.303,23.33093,19.36922,-19.79636
306,10.200,-0.342,8.248,4.626,34.68687,39.70225,-2.77118
307,10.233,0.389,8.162,4.212,44.91693,28.17040,19.53292
308,10.267,2.565,10.788,5.999,37.13653,21.26914,20.96000
309,10.300,1.628,10.515,3.843,8.77893,15.41986,-2.28956
310,10.333,1.908,7.926,2.523,14.43271,7.46698,2.49834
311,10.367,1.813,8.001,-0.003,12.19291,-14.35571,14.74252
312,10.400,3.993,7.113,-1.604,37.31959,-37.77689,33.51837
313,10.433,4.543,4.630,-0.508,22.12130,-85.38532,49.81852
314,10.467,4.462,6.874,-1.990,-1.98085,-121.71802,45.41251
315,10.500,-0.914,16.684,15.032,-68.40095,-109.36115,19.69580
316,10.533,-14.006,15.762,9.480,-52.05218,-74.24041,-42.39514
317,10.567,0.527,7.085,1.049,110.88397,49.22888,49.73857
318,10.600,-1.049,4.940,8.157,-1.61705,-4.15613,45.23950
319,10.633,-4.243,10.298,4.447,-60.96462,-48.26525,23.48193
320,10.667,-2.334,8.242,3.642,7.58907,0.28978,15.53202
321,10.700,-1.269,4.753,4.219,-14.44970,-15.13662,10.54975
322,10.733,-2.008,5.488,4.299,-21.85251,-21.45861,12.66700
323,10.767,-3.165,7.704,4.585,-26.76305,-8.31582,11.90837
324,10.800,-3.426,8.708,3.376,-31.22151,0.98434,8.56514
325,10.833,-2.595,8.590,3.585,-19.69501,6.39177,1.02337
326,10.867,-3.079,8.336,3.908,-20.85750,6.62040,-4.45018
327,10.900,-3.201,8.648,3.333,-25.37401,14.86254,-1.79392
328,10.933,-2.574,9.003,2.719,-18.60593,14.00545,-1.93614
329,10.967,-2.645,8.835,2.854,-19.34069,6.35370,-6.10162
330,11.000,-3.284,8.640,2.467,-28.61170,10.03947,-8.43076
331,11.033,-3.058,8.715,1.988,-35.71265,11.97590,-7.85775
332,11.067,-2.736,8.895,2.157,-45.87568,14.23108,-5.65029
333,11.100,-2.546,9.480,1.870,-47.28220,13.63139,-5.98027
334,11.133,-2.119,9.075,1.189,-37.29275,8.02214,-10.19480
335,11.167,-2.324,9.593,1.394,-39.20640,-2.44627,-13.60729
336,11.200,-2.808,9.945,1.197,-25.69851,4.98266,-21.02403
337,11.233,-3.197,10.124,1.326,-4.53790,9.55910,-16.02576
338,11.267,-2.080,9.591,1.786,4.31004,12.30076,-12.35741
339,11.300,-2.258,9.615,1.182,7.94431,-3.95681,-13.44368
340,11.333,-2.544,9.975,1.914,10.36156,-7.32513,-12.64842
341,11.367,-2.647,9.940,1.155,12.98768,5.15027,-8.84450
342,11.400,-1.959,9.535,0.864,30.91897,9.46241,-7.64910
343,11.433,-1.827,9.725,0.488,20.21228,6.17930,-10.87986
344,11.467,-2.313,10.087,0.097,13.66896,12.36324,-12.21085
345,11.500,-1.613,10.420,0.527,20.58353,9.44162,-11.54467
346,11.533,-1.621,10.097,0.614,28.32072,10.63232,-14.44764
347,11.567,-0.887,10.635,0.771,14.65011,6.84418,-18.66717
348,11.600,-1.164,11.024,1.717,7.68903,0.73176,-21.44109
349,11.633,-1.567,9.810,2.893,2.38323,-4.89856,-25.08550
350,11.667,-1.640,7.442,2.832,-11.20562,-4.82493,-32.40494
351,11.700,-0.216,7.847,4.577,-22.33296,-2.90712,-26.45229
352,11.733,0.611,11.331,5.049,2.97436,14.12368,-16.18333
353,11.767,-2.402,10.916,3.038,34.65831,21.90475,5.32373
354,11.800,-2.131,10.958,3.579,26.25803,36.78339,18.30622
355,11.833,2.161,12.191,3.396,10.56859,28.64325,-10.76786
356,11.867,3.547,9.162,2.044,25.43945,-14.22450,-9.42993
357,11.900,2.136,7.226,-1.763,61.36359,-29.02587,7.87246
358,11.933,3.242,4.411,-2.367,91.52995,-31.13418,31.48599
359,11.967,3.929,1.670,-0.590,79.00185,-86.96504,35.63388
360,12.000,1.999,7.592,1.389,18.22642,-141.23263,29.15978
361,12.033,-17.497,16.454,3.406,-172.55989,32.46901,-53.11253
362,12.067,2.706,16.120,-3.001,29.19777,24.90492,19.89407
363,12.100,-8.472,6.758,6.098,121.81996,64.13237,42.62178
364,12.133,-3.335,5.871,6.145,-58.24510,-3.49291,-4.76797
365,12.167,-3.154,9.227,4.554,-75.07351,-4.57541,2.13470
366,12.200,-0.158,8.045,3.333,21.09601,-1.89383,2.09442
367,12.233,-1.827,5.211,4.345,7.65110,-3.66884,-0.29781
368,12.267,-2.518,6.833,4.414,-42.98850,8.30382,-0.66539
369,12.300,-2.054,9.833,3.651,-33.79362,5.94784,6.69355
370,12.333,-2.318,9.509,3.127,-6.49500,2.82287,2.01431
371,12.367,-1.871,8.696,3.599,-15.58809,3.55113,-2.95059
372,12.400,-1.816,9.107,3.610,-16.51491,-0.29361,-1.62058
373,12.433,-1.785,8.958,3.179,-17.87741,-4.89016,-4.80257
374,12.467,-2.067,9.083,2.091,-16.89984,-5.53952,-7.78484
375,12.500,-2.437,9.322,2.096,-12.49673,-4.37098,-6.56456
376,12.533,-2.184,8.855,2.488,-19.02469,-2.20229,-5.17618
377,12.567,-1.678,8.936,2.085,-23.02141,-5.06723,-10.07863
378,12.600,-1.743,9.210,1.551,-16.24502,-7.90162,-13.39024
379,12.633,-1.484,9.096,1.532,-17.33492,-5.16781,-13.07406
380,12.667,-1.969,9.544,1.329,-17.26898,-6.84316,-13.79128
381,12.700,-2.209,10.060,1.109,-11.79304,-7.32771,-15.94080
382,12.733,-1.379,9.733,1.174,-9.10605,-13.07553,-14.92390
383,12.767,-1.317,10.142,1.284,-5.21177,-8.16028,-16.31218
384,12.800,-2.191,10.311,1.661,-7.16653,0.67735,-15.03759
385,12.833,-1.527,10.268,1.322,-0.38992,-3.91048,-15.99149
386,12.867,-1.959,10.276,1.331,10.03632,-1.28184,-13.00741
387,12.900,-1.834,10.317,1.387,11.96965,7.26308,-11.72530
388,12.933,-1.814,10.158,1.261,20.16165,10.41961,-8.08907
389,12.967,-1.380,10.108,1.245,20.84768,10.64283,-7.91165
390,13.000,-1.500,10.079,1.024,19.26334,20.14652,-11.32046
391,13.033,-1.236,10.134,1.560,17.58331,25.70819,-12.91180
392,13.067,-0.831,10.600,1.519,13.65993,28.42798,-9.48485
393,13.100,-0.587,10.706,1.812,17.98760,24.29662,-8.54413
394,13.133,-0.671,10.190,2.391,26.57441,13.08058,-14.44554
395,13.167,-0.797,9.258,3.351,37.87558,12.69375,-25.14932
396,13.200,-0.445,8.543,4.249,33.75513,29.69602,-32.74225
397,13.233,-0.838,10.576,5.228,2.95315,40.01294,-24.76808
398,13.267,-1.120,8.501,4.116,26.75417,44.31022,5.36129
399,13.300,0.065,7.458,5.151,43.49083,38.64620,21.96851
400,13.333,2.101,11.505,4.821,17.35499,29.12908,9.91019
401,13.367,1.629,11.854,2.012,27.81503,29.83406,-6.46016
402,13.400,1.022,7.630,2.713,24.89069,35.24806,1.84695
403,13.433,2.219,5.854,0.389,14.39958,6.52466,23.87693
404,13.467,3.316,6.282,-1.308,10.12469,-16.73174,38.58295
405,13.500,3.829,5.254,-0.781,-9.36596,-54.03577,53.53098
406,13.533,3.638,5.960,-0.766,-29.06892,-82.42906,56.16813
407,13.567,-10.417,19.227,17.570,-51.66558,-52.06691,-6.03728
408,13.600,-6.462,10.771,0.732,-41.81836,0.46699,-7.76116
409,13.633,-0.439,6.699,5.954,87.91078,27.20662,40.11791
410,13.667,1.547,10.670,8.380,-25.84375,-30.59919,10.70937
411,13.700,-2.625,9.504,1.416,-18.31306,-17.96604,6.84188
412,13.733,-2.127,6.721,4.679,0.18539,-7.44384,10.28634
413,13.767,-2.255,5.986,3.505,-21.16676,-20.39463,11.64061
414,13.800,-1.657,6.969,4.333,2.86774,-17.96363,4.78686
415,13.833,-0.868,8.292,5.527,-12.65777,-19.13773,9.47227
416,13.867,-1.582,8.971,3.883,-23.94130,-18.93177,4.42829
417,13.900,-1.976,8.911,3.558,-16.07194,-19.41313,0.66731
418,13.933,-1.707,8.674,3.528,-20.04990,-31.47961,3.37945
419,13.967,-2.241,8.963,3.415,-18.86295,-34.73936,-0.16622
420,14.000,-2.017,9.329,3.518,-5.40733,-35.59453,-0.51311
421,14.033,-2.093,8.461,2.991,5.23948,-28.43995,-6.45893
422,14.067,-2.508,8.257,2.971,-11.24668,-18.37083,-9.68525
423,14.100,-2.494,9.158,3.271,-15.00102,-9.08024,-11.81471
424,14.133,-2.622,9.415,2.968,-15.14420,-2.86970,-10.68585
425,14.167,-2.194,8.984,2.621,-22.53838,1.16258,-10.04901
426,14.200,-2.040,9.519,2.572,-26.29489,5.45609,-13.84222
427,14.233,-2.326,10.008,2.688,-18.63327,7.77344,-14.57206
428,14.267,-2.185,9.285,2.318,-12.95015,13.49824,-15.04864
429,14.300,-1.952,9.179,1.742,-16.07434,15.49774,-17.12462
430,14.333,-2.218,10.239,1.588,-21.43831,19.44114,-14.55065
431,14.367,-2.457,10.511,1.912,-9.62303,29.51377,-13.82882
432,14.400,-2.283,10.141,2.186,-3.16741,31.70646,-7.71629
433,14.433,-1.850,9.730,1.831,-0.73695,28.40863,-4.63990
434,14.467,-1.499,10.293,1.769,3.38987,30.71005,-7.51905
435,14.500,-1.422,10.393,1.394,6.05606,32.11494,-5.37115
436,14.533,-1.312,10.110,1.390,12.83584,25.81184,-6.57450
437,14.567,-1.167,10.092,0.750,14.44116,24.65650,-6.85219
438,14.600,-0.995,9.982,0.986,19.88735,22.00409,-7.78632
439,14.633,-0.987,9.750,0.973,21.92538,15.82727,-12.47460
440,14.667,-0.636,9.849,1.174,20.12081,17.62815,-15.01755
441,14.700,-0.499,10.353,0.871,14.50443,10.63481,-12.08944
442,14.733,-0.857,10.682,1.701,17.60760,21.28737,-15.48728
443,14.767,-1.115,9.830,3.662,34.59348,16.40561,-14.90953
444,14.800,-0.899,9.303,5.125,27.91147,17.67746,-19.69055
445,14.833,0.300,9.420,5.379,25.35415,17.73091,-18.66387
446,14.867,1.186,7.468,3.456,29.88929,3.48038,-6.46300
447,14.900,0.254,7.156,4.397,25.79708,-4.26674,11.10771
448,14.933,0.395,9.974,5.671,1.29660,11.70256,0.06890
449,14.967,1.719,12.016,1.725,-8.42682,2.65487,-12.08399
450,15.000,1.702,7.648,2.708,35.88708,10.43326,4.80477
451,15.033,2.278,7.117,0.578,16.48382,-8.01371,20.38297
452,15.067,3.142,7.011,-1.125,19.06593,-26.26455,31.42098
453,15.100,4.538,4.454,1.424,-28.80547,-70.96898,39.21766
454,15.133,4.894,7.651,0.648,-39.26411,-141.48212,40.42693
455,15.167,-7.627,19.559,9.553,-51.82165,-11.32235,-82.00157
456,15.200,-4.084,9.199,0.663,-33.28469,-30.20071,-7.61574
457,15.233,-2.546,6.652,11.685,55.40221,5.69280,31.58273
458,15.267,-3.898,10.236,6.703,-27.65701,-2.83118,13.63924
459,15.300,-1.551,10.236,4.084,20.60535,-7.80620,18.62275
460,15.333,-0.849,7.225,3.924,2.13468,-35.48243,7.26880
461,15.367,-0.768,5.728,3.266,2.05426,-35.30977,-3.55646
462,15.400,-2.378,6.924,4.695,-3.46194,-21.55495,-2.76234
463,15.433,-2.222,8.370,4.209,-17.98379,-12.66986,1.42462
464,15.467,-2.610,8.709,2.781,-21.50843,-13.55268,3.88945
465,15.500,-1.417,8.744,3.014,-13.76616,-19.65212,2.72720
466,15.533,-0.915,8.409,3.431,-12.04423,-28.51892,-0.53953
467,15.567,-1.696,9.116,3.415,-20.07361,-34.90815,-5.37262
468,15.600,-2.582,8.730,3.167,-13.88197,-26.98117,-9.50734
469,15.633,-2.973,8.414,3.060,-11.11068,-18.42089,-7.34787
470,15.667,-3.116,8.872,3.210,-11.18399,-2.88021,-5.27323
471,15.700,-2.719,8.957,2.829,-14.97251,9.16040,-3.34707
472,15.733,-2.373,9.251,2.879,-18.45124,14.20239,-3.29772
473,15.767,-2.518,9.418,2.807,-16.50150,17.08029,-5.67259
474,15.800,-2.438,9.278,2.528,-19.00171,24.44092,-4.63253
475,15.833,-2.032,9.430,2.084,-26.45810,20.20307,-5.27700
476,15.867,-1.551,9.887,1.697,-25.17093,18.14809,-7.84797
477,15.900,-1.756,10.242,1.654,-11.35968,23.14265,-12.24198
478,15.933,-2.491,10.021,1.736,-3.43031,25.65871,-9.89236
479,15.967,-2.019,9.630,1.966,0.92007,28.40560,-5.26315
480,16.000,-1.824,9.782,1.575,-2.76405,31.44120,-7.30494
481,16.033,-1.385,10.061,2.051,2.43211,29.29084,-8.12520
482,16.067,-1.991,10.634,1.986,7.92850,32.45074,-10.60172
483,16.100,-2.095,10.259,1.951,16.92839,38.81199,-12.16204
484,16.133,-1.827,9.804,1.905,13.00076,44.90563,-11.75923
485,16.167,-1.582,9.733,1.999,7.49225,50.07155,-13.72224
486,16.200,-0.916,9.546,1.806,11.08739,48.91957,-18.81761
487,16.233,-0.570,9.777,2.192,11.69618,35.97262,-20.57282
488,16.267,-0.565,10.105,2.209,14.09655,27.31323,-17.22318
489,16.300,-0.415,9.699,2.740,18.84015,14.42371,-18.73861
490,16.333,-0.342,9.763,2.756,10.97416,16.06984,-19.91307
491,16.367,0.375,10.457,2.351,15.52735,6.51810,-12.71669
492,16.400,0.501,9.911,2.489,35.47495,-2.75167,-13.45063
493,16.433,0.515,9.317,3.216,28.34913,-5.55370,-21.27176
494,16.467,0.681,9.311,3.300,25.31239,-11.91907,-24.00838
495,16.500,1.191,9.263,4.259,32.11053,-16.73528,-23.25185
496,16.533,0.713,9.436,5.612,38.10883,-9.20991,-24.80065
497,16.567,-1.024,8.288,5.464,37.40112,-4.33184,-9.31083
498,16.600,-1.475,6.581,5.885,39.77011,12.26926,19.51169
499,16.633,0.667,9.228,6.482,28.17242,11.06118,29.58049
500,16.667,2.061,11.390,5.094,-3.66711,7.69421,9.79789
501,16.700,1.797,8.166,3.532,-2.43544,12.75200,11.81401
502,16.733,3.179,7.538,1.067,6.13695,-30.18865,28.25919
503,16.767,3.411,7.126,-0.954,26.45667,-47.94437,32.72355
504,16.800,5.312,4.143,0.031,19.67462,-57.84230,54.95795
505,16.833,3.747,5.388,3.463,-43.79764,-98.44937,42.91869
506,16.867,-17.653,19.542,19.613,-149.56369,-101.86440,-23.79660
507,16.900,2.692,10.605,-1.782,17.91346,-9.67010,11.15596
508,16.933,-3.558,6.678,11.596,50.49149,-2.77655,30.89376
509,16.967,-5.078,7.150,5.997,-59.82335,-24.67141,18.26552
510,17.000,-1.372,8.346,2.951,-9.63438,-8.70866,8.11245
511,17.033,0.162,6.134,4.935,-6.41170,-9.47752,2.39453
512,17.067,0.112,5.289,4.785,-18.68328,-32.21032,-4.95832
513,17.100,-1.060,6.366,4.485,-18.96042,-29.92223,-2.28740
514,17.133,-1.321,7.392,4.357,-32.42452,-35.77332,-5.91171
515,17.167,-4.477,10.458,4.013,-36.53129,-27.28401,-26.92289
516,17.200,-2.569,9.674,3.625,-17.81360,-11.36664,-20.25148
517,17.233,-1.997,7.835,4.516,-31.96158,-16.03526,-12.63874
518,17.267,-2.890,8.889,3.202,-32.01009,-4.09168,-13.57311
519,17.300,-3.000,9.387,2.758,-24.59661,4.61026,-13.88787
520,17.333,-2.425,9.152,3.170,-22.09586,8.71201,-9.57763
521,17.367,-2.328,9.137,2.997,-21.40205,12.10644,-7.14435
522,17.400,-2.245,9.085,2.231,-21.16556,15.30333,-4.77266
523,17.433,-1.691,9.428,2.147,-29.88816,11.59707,-2.70387
524,17.467,-1.702,9.404,1.863,-28.00470,8.85569,-4.87450
525,17.500,-1.979,10.118,2.141,-14.72283,10.33993,-4.43676
526,17.533,-1.992,10.214,2.083,-5.18768,13.22963,-6.61620
527,17.567,-2.104,9.511,1.866,-5.61272,18.80395,-5.74313
528,17.600,-1.700,9.414,2.009,-1.51960,19.54869,-1.40528
529,17.633,-1.866,9.757,1.864,-4.25877,21.34028,-0.89077
530,17.667,-1.620,9.712,1.757,-5.66864,23.11791,0.21829
531,17.700,-1.517,10.021,1.542,0.99302,20.52088,1.02920
532,17.733,-1.430,10.400,1.765,9.49151,21.26870,0.45751
533,17.767,-0.987,9.716,1.657,14.96766,14.53212,-0.88694
534,17.800,-1.253,9.370,1.586,15.79612,19.03660,-8.18465
535,17.833,-1.556,9.718,2.325,16.24443,17.08433,-10.43942
536,17.867,-1.456,9.855,2.233,14.71111,15.17701,-8.58248
537,17.900,-1.388,9.727,2.139,13.90539,15.49199,-12.55965
538,17.933,-1.647,9.605,2.667,11.76716,11.98163,-14.62032
539,17.967,-1.150,9.728,2.418,9.14990,14.81169,-14.42847
540,18.000,-0.869,9.465,2.911,10.11479,15.77919,-16.38832
541,18.033,-0.613,9.607,2.837,5.60069,14.68327,-18.91264
542,18.067,-0.351,10.078,3.592,6.14831,14.62532,-26.62304
543,18.100,-0.934,10.285,4.710,16.52471,21.46978,-36.34228
544,18.133,-0.947,9.545,4.923,12.72608,27.09218,-31.22732
545,18.167,0.505,8.517,3.695,6.81419,14.92773,-6.42580
546,18.200,2.998,8.770,4.016,50.53143,12.69913,10.33343
547,18.233,2.871,12.708,4.791,22.31019,2.91051,-1.97231
548,18.267,1.227,11.262,2.605,25.47397,5.68232,-11.05198
549,18.300,2.270,8.045,3.008,23.80978,-2.91615,4.54873
550,18.333,3.790,7.225,-0.045,24.21904,-49.36813,8.57298
551,18.367,3.923,5.652,-2.467,37.00742,-63.34060,13.76929
552,18.400,5.325,2.359,0.619,28.89951,-67.85591,17.98208
553,18.433,-2.498,19.324,19.476,-87.81990,-21.02813,17.46003
554,18.467,0.337,11.159,4.552,-4.97709,-116.06658,7.02619
555,18.500,-0.028,8.796,8.774,69.38881,1.02891,-1.32513
556,18.533,-3.005,7.382,6.925,3.76066,-54.16545,21.72119
557,18.567,-2.806,5.959,2.642,10.84535,-28.21724,15.79352
558,18.600,-1.520,6.055,4.161,-10.18930,-37.82138,4.72861
559,18.633,-0.264,6.286,2.953,-17.97514,-34.16420,-13.36344
560,18.667,-2.227,5.779,5.107,-13.72231,-38.15803,-16.63559
561,18.700,-2.624,6.841,5.583,-19.86420,-24.91848,-17.81405
562,18.733,-2.420,9.585,4.820,-28.81286,-13.84968,-17.23759
563,18.767,-2.159,10.491,4.320,-12.33668,-12.21340,-9.71189
564,18.800,-2.242,9.458,4.700,8.37373,-17.61962,-2.26366
565,18.833,-2.395,7.344,5.362,-4.82286,-27.10463,-10.33720
566,18.867,-3.346,5.766,5.506,-27.25277,-28.44222,-23.22599
567,18.900,-2.801,7.535,4.613,-45.37267,-19.16339,-22.18835
568,18.933,-2.302,9.317,4.406,-37.03563,-11.00169,-13.77043
569,18.967,-2.550,10.160,3.652,-27.80103,-8.77999,-8.73034
570,19.000,-1.697,10.514,3.448,-11.59732,-14.64849,-2.79917
571,19.033,-0.646,9.929,3.841,-12.04433,-23.46083,0.48120
572,19.067,-1.082,9.892,3.357,-3.99611,-26.38088,-4.59111
573,19.100,-1.710,9.931,3.425,12.30126,-27.51372,-4.55738
574,19.133,-2.073,9.066,3.298,11.21619,-23.65012,-1.93992
575,19.167,-1.720,9.134,3.393,3.34528,-23.98473,-0.27284
576,19.200,-2.054,9.378,3.259,6.73048,-23.26367,1.07861
577,19.233,-2.037,9.467,3.339,4.60289,-20.76556,0.79569
578,19.267,-1.595,9.103,2.960,1.61813,-18.12152,-2.51705
579,19.300,-1.239,8.976,2.844,-0.17697,-21.05857,-6.90372
580,19.333,-1.110,9.306,2.780,-3.24383,-23.91626,-11.28942
581,19.367,-1.026,9.060,2.656,-3.50430,-29.03440,-16.59927
582,19.400,-0.856,9.219,2.715,-2.21176,-35.35850,-20.56619
583,19.433,-1.085,9.548,2.847,-1.50713,-42.48379,-25.97046
584,19.467,-0.650,9.232,3.000,-0.74814,-45.41734,-32.83536
585,19.500,-0.709,9.539,3.084,1.18572,-55.62932,-33.15495
586,19.533,-0.546,9.231,3.199,2.94556,-64.05300,-34.91708
587,19.567,-0.519,9.645,3.193,0.90129,-74.60331,-36.28376
588,19.600,-0.410,9.535,3.090,2.94597,-80.76608,-37.90308
589,19.633,-0.717,9.672,3.271,3.96617,-85.49700,-38.42764
