frame_number,sync_timestamp,accel_x,accel_y,accel_z,gyro_x,gyro_y,gyro_z
0,0.000,0.232,9.867,1.439,-0.11450,1.90076,-1.29008
1,0.033,0.194,9.685,1.601,-0.83106,1.54516,-0.96233
2,0.067,0.301,9.843,1.602,-0.85725,1.71738,-1.01588
3,0.100,0.243,9.847,1.673,-0.74520,1.63618,-0.71720
4,0.133,0.251,9.762,1.664,-0.58123,1.83987,-0.36146
5,0.167,0.209,9.838,1.630,-1.29812,1.89852,-0.27161
6,0.200,0.170,9.836,1.572,-0.66075,2.61819,-0.09044
7,0.233,0.177,9.865,1.700,-0.29628,2.65565,-0.12370
8,0.267,0.267,9.799,1.774,0.35203,2.70173,-0.12877
9,0.300,0.320,10.050,1.390,3.04645,2.02980,-0.20917
10,0.333,0.352,10.214,1.938,8.47477,2.43754,-1.61181
11,0.367,0.420,9.943,2.082,7.69811,5.31736,-2.43992
12,0.400,0.502,9.684,2.072,5.12348,4.59446,-2.79037
13,0.433,0.598,9.816,2.245,7.61648,4.89599,-3.12054
14,0.467,0.680,9.800,2.406,9.51772,6.97054,-3.00257
15,0.500,0.711,9.583,2.128,4.41709,5.51723,0.64392
16,0.533,0.768,9.436,1.668,2.08812,5.30058,0.62388
17,0.567,1.079,9.541,1.507,0.75731,1.71254,1.36608
18,0.600,1.183,10.183,1.589,0.57403,-0.70173,1.72570
19,0.633,0.814,10.266,1.787,4.31215,-3.08186,2.34514
20,0.667,0.209,9.709,2.092,2.68956,0.94457,3.49459
21,0.700,0.089,9.650,2.068,0.94341,5.24743,5.98452
22,0.733,0.107,9.865,2.076,1.89691,5.70463,7.48626
23,0.767,0.527,9.758,2.093,5.89375,3.25581,6.93531
24,0.800,0.576,9.032,2.406,11.73521,-4.53682,0.63203
25,0.833,0.205,8.930,1.647,11.47996,-11.49158,-6.17724
26,0.867,-0.492,10.672,0.754,1.66675,7.04873,-11.57498
27,0.900,-1.264,11.314,0.833,2.28465,5.54278,1.09499
28,0.933,0.104,10.321,1.140,4.99566,-0.61878,10.06365
29,0.967,0.035,9.263,0.789,6.67514,-4.33730,10.94035
30,1.000,-0.124,9.726,0.721,5.36801,-5.86249,7.76853
31,1.033,-0.025,9.967,0.695,11.05922,-3.73088,3.17975
32,1.067,-0.937,9.859,0.740,10.25627,-0.77938,3.29866
33,1.100,-0.805,9.306,0.331,4.72087,1.24000,2.71570
34,1.133,-0.740,9.367,0.190,-5.85662,7.26195,-0.74745
35,1.167,-0.718,9.822,0.094,-8.95028,7.16233,-2.76337
36,1.200,-0.904,9.482,0.506,-11.28149,7.13826,-2.81481
37,1.233,-0.829,10.581,1.833,-12.82274,15.03272,-3.91360
38,1.267,0.846,11.761,2.422,-10.44959,6.42929,-0.11608
39,1.300,0.483,10.525,3.642,1.14270,-9.54455,-8.28074
40,1.333,-0.056,9.963,3.824,-3.89075,3.05821,-18.02636
41,1.367,0.399,9.185,3.461,3.96095,2.51445,-11.34662
42,1.400,0.316,8.459,3.553,0.69578,-1.32559,1.23450
43,1.433,0.681,9.564,3.377,-2.66565,3.43008,1.40981
44,1.467,1.547,11.245,2.774,-0.92078,1.94323,-8.74262
45,1.500,0.882,9.867,2.898,7.00261,4.86037,-6.92864
46,1.533,0.320,9.229,2.597,7.57544,6.11621,4.67208
47,1.567,0.628,10.014,1.941,9.98862,4.53197,9.06812
48,1.600,1.739,9.998,1.272,24.57626,-0.13349,5.18269
49,1.633,2.298,8.719,1.290,22.81208,-9.53542,5.04481
50,1.667,1.648,6.935,0.467,0.63025,-24.45092,11.89602
51,1.700,1.580,5.415,0.180,-16.29327,-24.98037,15.10334
52,1.733,1.722,5.190,-0.775,-30.01726,-31.69151,14.85617
53,1.767,1.657,7.517,0.347,-35.75128,-19.62470,5.13764
54,1.800,-8.467,19.613,9.296,-62.20258,48.50788,-55.26465
55,1.833,-2.248,12.108,0.592,21.49306,55.11035,15.50139
56,1.867,4.421,13.392,6.833,-16.46273,5.38051,15.05677
57,1.900,1.832,13.762,3.027,23.58503,-26.52545,-7.95870
58,1.933,-0.898,8.112,5.247,23.79509,-20.39076,-7.59567
59,1.967,-2.017,6.266,3.200,-18.14664,-5.44253,4.64937
60,2.000,-1.648,6.131,2.807,-17.42057,5.79948,11.21440
61,2.033,-0.963,7.321,3.102,3.83026,8.21976,14.85637
62,2.067,-0.429,8.423,3.496,-3.99443,6.39632,9.47279
63,2.100,-0.031,8.764,3.208,-15.43067,2.64072,-2.61685
64,2.133,-0.174,9.171,2.499,-19.71496,0.58791,-8.03091
65,2.167,-1.005,10.053,2.014,-16.34381,-1.26634,-5.29239
66,2.200,-1.207,10.449,1.810,-10.68316,1.07321,-0.83712
67,2.233,-0.868,9.850,2.007,-6.41581,5.30972,0.80804
68,2.267,-0.556,9.395,1.820,-7.63082,0.86615,-2.46600
69,2.300,-0.407,9.818,1.664,-4.98271,2.10886,-6.61263
70,2.333,-0.517,10.033,1.345,-0.44292,-0.00376,-8.78076
71,2.367,-0.608,9.378,1.323,-2.07603,-1.68020,-10.03506
72,2.400,-0.516,9.290,0.868,-6.00365,-3.14008,-8.92411
73,2.433,-0.527,9.508,0.689,-3.85401,-0.80438,-7.12344
74,2.467,-0.346,9.222,0.835,-0.50906,-0.55236,-9.08600
75,2.500,-0.498,9.466,0.723,-0.02031,0.48569,-9.48186
76,2.533,-0.714,9.717,0.566,1.96848,0.24236,-8.42675
77,2.567,-0.263,10.037,0.402,3.48070,-0.71396,-5.45250
78,2.600,-0.293,10.207,0.016,2.70752,-2.19833,-4.05744
79,2.633,-0.584,9.936,-0.110,-1.42616,3.18682,-4.75182
80,2.667,-0.410,10.362,0.147,-7.97007,8.46442,-4.29320
81,2.700,0.036,10.368,0.866,-6.81915,1.76270,-0.73443
82,2.733,0.440,10.986,2.763,8.42597,-9.56356,-1.49153
83,2.767,-0.104,10.481,4.640,18.13376,-1.76156,-3.30855
84,2.800,0.211,9.385,4.275,13.25998,13.34173,1.83660
85,2.833,0.196,9.307,2.995,8.21975,12.52372,8.13252
86,2.867,0.538,10.330,2.921,2.72369,10.40438,7.26631
87,2.900,1.798,11.268,3.135,12.17425,8.12535,-5.88759
88,2.933,1.251,10.105,2.729,12.42320,9.11574,-10.59056
89,2.967,0.053,8.977,2.340,15.02063,11.70429,1.56446
90,3.000,-0.080,9.784,1.699,20.89959,14.16294,11.50536
91,3.033,0.702,9.757,1.693,26.95900,16.02775,10.62720
92,3.067,1.680,8.396,1.753,26.15874,13.36540,9.76529
93,3.100,1.755,6.916,0.906,3.77135,2.69305,11.48080
94,3.133,1.569,6.048,-0.266,-2.43393,0.01385,15.24476
95,3.167,1.834,5.012,-0.287,-14.67240,-9.21327,8.98734
96,3.200,2.456,4.872,-0.855,-29.78958,-16.55416,4.24486
97,3.233,-0.323,11.208,12.598,-64.40148,67.21518,-34.60925
98,3.267,-8.742,19.499,2.362,-46.27885,17.21775,-3.41546
99,3.300,4.368,12.373,6.578,-20.10017,4.81797,28.92245
100,3.333,2.350,16.952,3.570,0.50049,-19.42286,-11.16691
101,3.367,-1.854,10.823,5.230,13.71960,-12.34983,-2.62206
102,3.400,-2.730,8.525,2.860,-11.26712,7.38570,16.20524
103,3.433,-0.601,7.445,2.514,-8.32795,7.14900,12.55374
104,3.467,-0.188,5.933,3.159,-2.44753,6.78348,11.30185
105,3.500,-0.113,6.473,3.178,-2.19666,3.23752,11.02117
106,3.533,-0.065,8.050,2.652,-2.85582,-6.32024,0.27159
107,3.567,-0.156,8.960,2.486,-6.99053,-12.86408,-8.50972
108,3.600,-0.365,9.445,2.301,-8.47594,-15.33920,-9.66246
109,3.633,-0.582,9.887,1.823,-5.75476,-15.25022,-6.26194
110,3.667,-0.528,9.856,1.649,-3.16569,-15.06039,-6.06966
111,3.700,-0.621,9.819,1.202,-1.97447,-15.85558,-5.54038
112,3.733,-0.861,9.790,1.457,3.33857,-12.69489,-6.70889
113,3.767,-0.693,9.636,1.459,6.25656,-10.03856,-7.42391
114,3.800,-0.672,9.546,1.413,8.10218,-9.45546,-7.16839
115,3.833,-0.693,9.711,1.127,4.28929,-8.89024,-7.13613
116,3.867,-0.685,9.531,1.176,2.81936,-7.19873,-9.11564
117,3.900,-1.044,10.053,1.109,5.61778,-3.45215,-13.28449
118,3.933,-1.127,9.718,1.110,2.24720,1.42355,-11.08712
119,3.967,-0.916,9.404,0.591,-1.10479,5.09965,-9.26428
120,4.000,-0.753,9.472,0.377,-6.11331,6.79905,-7.80880
121,4.033,-0.817,9.275,0.142,-9.42820,5.69007,-5.96290
122,4.067,0.484,10.086,1.244,-4.56537,0.03254,-2.58325
123,4.100,0.909,11.465,2.801,-4.87019,-15.20560,0.97083
124,4.133,1.178,12.369,4.172,-2.47776,-17.25397,1.04517
125,4.167,-0.322,10.076,3.843,8.57429,-6.66885,-1.67260
126,4.200,-0.014,8.281,3.077,4.39788,6.20603,6.21549
127,4.233,0.628,9.420,2.843,6.77391,0.67870,15.40999
128,4.267,1.333,10.975,3.063,9.42180,-1.67295,3.57294
129,4.300,1.612,10.541,2.871,10.79308,-1.20915,-10.85229
130,4.333,0.770,9.209,2.173,11.63902,1.32271,-6.29103
131,4.367,-0.012,9.362,1.569,14.84253,9.20660,2.23412
132,4.400,0.045,9.626,1.767,24.58098,14.63222,7.46089
133,4.433,1.053,9.040,1.457,27.94989,12.73456,10.12835
134,4.467,1.784,8.755,0.785,14.14298,9.21819,5.45879
135,4.500,1.848,7.597,0.221,-8.31728,0.21045,6.21500
136,4.533,1.146,6.006,-0.923,-24.56442,-18.66938,12.51044
137,4.567,0.696,6.439,-0.485,-33.16577,-5.29604,19.43159
138,4.600,2.200,6.983,-0.730,-31.86818,-7.07489,19.25667
139,4.633,-1.875,18.317,10.660,-23.33443,54.34683,-25.33877
140,4.667,-1.406,13.889,3.106,-15.57411,10.36111,-16.82086
141,4.700,2.765,15.699,7.331,-19.08414,5.56044,-10.80103
142,4.733,-0.202,14.900,4.467,21.64393,-20.58281,-16.05116
143,4.767,-1.781,10.508,4.830,17.92319,-13.09671,-1.60248
144,4.800,-1.681,8.337,2.737,-5.59246,-1.96052,9.77510
145,4.833,-1.515,7.255,2.569,-6.15837,6.58827,14.62628
146,4.867,-0.616,6.425,2.886,8.87765,6.62945,19.03843
147,4.900,-0.040,6.231,2.925,5.57363,8.07520,12.15869
148,4.933,0.024,7.673,2.665,-12.61776,6.63251,2.72833
149,4.967,0.020,9.364,2.451,-8.38454,4.57272,-6.57322
150,5.000,-0.674,9.797,2.244,-4.28626,-1.94685,-6.08340
151,5.033,-0.920,10.234,2.031,-8.70440,-5.79901,-3.33956
152,5.067,-0.365,10.089,1.648,-10.93798,-8.71161,-1.06073
153,5.100,-0.359,9.987,1.676,-11.32995,-10.27424,-1.83041
154,5.133,-0.638,10.095,1.559,-5.84035,-8.34666,-5.26717
155,5.167,-1.007,9.785,1.656,-2.82227,-6.42917,-6.81553
156,5.200,-0.825,9.304,1.403,-1.35892,-5.83009,-5.64098
157,5.233,-0.547,9.293,1.407,-2.31038,-3.96590,-7.08707
158,5.267,-0.601,9.586,1.099,0.64095,-3.07776,-7.12047
159,5.300,-0.721,9.568,1.164,3.50007,-1.58391,-6.46738
160,5.333,-0.582,9.489,0.897,0.37226,-1.48891,-5.90359
161,5.367,-0.678,9.392,0.575,-1.28350,0.11731,-5.58408
162,5.400,-0.636,9.514,0.119,-2.78491,2.98325,-3.58768
163,5.433,-0.856,9.772,-0.008,-6.61333,5.69868,-4.45780
164,5.467,-0.446,10.339,0.350,-8.07108,9.04081,-4.92210
165,5.500,0.216,11.600,1.650,-0.80154,7.09256,-4.94158
166,5.533,-0.197,11.696,3.006,1.20540,5.50822,3.13093
167,5.567,0.292,10.671,4.450,9.21569,-0.65079,6.12739
168,5.600,0.983,9.134,3.678,11.49999,-0.31548,2.84459
169,5.633,0.867,8.801,3.084,7.83213,-8.73759,8.15776
170,5.667,0.511,10.216,2.854,-2.33106,-11.22157,8.94246
171,5.700,1.006,11.082,2.583,11.40677,-6.24549,-1.25129
172,5.733,1.114,10.468,2.276,17.77356,-2.45212,-10.78967
173,5.767,0.571,9.001,2.112,19.39735,1.21414,-5.64737
174,5.800,-0.038,9.032,2.156,24.69458,7.70721,-1.16897
175,5.833,0.500,9.107,1.021,24.55574,10.42418,0.88372
176,5.867,1.462,8.582,0.531,17.06000,3.27368,3.27486
177,5.900,1.921,7.025,-1.320,0.67127,-7.07330,15.04716
178,5.933,1.820,5.045,-1.008,-10.92800,-13.89083,16.65798
179,5.967,0.987,5.285,-1.038,-30.06610,-21.88364,17.46581
180,6.000,0.272,9.678,5.732,-96.22534,10.57239,-1.03972
181,6.033,-7.084,19.613,5.484,-83.20144,14.56994,-52.21449
182,6.067,5.584,12.189,3.786,28.50904,35.37266,26.16196
183,6.100,3.986,12.318,7.834,-11.45094,-6.37213,-10.77475
184,6.133,-0.255,11.297,3.213,46.91854,-55.64551,-10.30748
185,6.167,-1.757,7.256,1.655,18.71796,-41.34387,-1.35330
186,6.200,-2.360,6.437,1.547,-8.60615,-1.39066,5.24407
187,6.233,-2.036,5.694,3.391,-19.62766,18.42073,13.47415
188,6.267,-0.831,7.994,2.856,3.99770,9.88833,16.48839
189,6.300,0.078,9.155,2.950,-8.03078,11.05164,3.88343
190,6.333,-0.354,9.892,2.324,-27.27409,8.42106,-9.22284
191,6.367,-0.800,10.610,1.265,-15.68840,1.30861,-8.70143
192,6.400,-0.731,11.010,1.581,-11.22351,-0.91651,-2.91087
193,6.433,-0.504,10.323,0.815,-6.94018,2.01080,-0.68251
194,6.467,-0.444,9.542,1.249,-7.03231,0.87219,-1.19456
195,6.500,-0.465,9.667,1.071,-2.25671,-1.34482,-3.24007
196,6.533,-0.669,9.799,1.032,2.14315,-3.77806,-4.44030
197,6.567,-0.548,9.191,1.030,1.45112,-3.54625,-7.05114
198,6.600,-0.690,9.107,1.093,-0.71127,-2.61743,-9.36736
199,6.633,-0.065,9.311,0.885,-3.78945,-2.61394,-8.92584
200,6.667,-0.249,9.576,0.506,0.66617,-6.27762,-7.68260
201,6.700,-0.405,9.524,0.694,2.76954,-7.30505,-8.29948
202,6.733,-0.215,9.507,0.027,-0.10613,-6.76588,-11.26950
203,6.767,-0.489,10.024,-0.254,0.22303,-4.55143,-12.18384
204,6.800,-0.970,10.873,-0.019,-2.85740,1.64122,-9.60235
205,6.833,0.252,12.044,0.845,-13.73686,-5.83824,-0.60180
206,6.867,1.018,11.045,1.284,-7.77716,-10.33401,5.41401
207,6.900,0.499,10.407,2.621,-5.07414,-23.93119,0.05908
208,6.933,-0.813,9.735,3.225,3.69495,-6.32405,-9.67639
209,6.967,-0.950,9.575,4.559,17.68330,7.61625,6.68171
210,7.000,-1.015,9.277,3.243,20.41649,13.22670,23.69057
211,7.033,0.905,9.397,3.135,5.88655,9.05320,20.45672
212,7.067,1.797,10.321,1.929,0.38183,7.42663,-0.72176
213,7.100,1.247,10.589,1.526,9.44657,6.46441,-3.46262
214,7.133,0.542,9.806,1.212,20.70231,8.76310,4.57029
215,7.167,-0.038,9.794,1.361,27.54565,12.66643,9.97668
216,7.200,0.503,9.345,0.874,34.20081,10.66844,8.85512
217,7.233,1.093,8.761,0.620,30.18443,6.47424,11.64361
218,7.267,0.940,7.520,-0.146,17.60212,3.22198,14.93498
219,7.300,1.512,5.680,-0.394,7.03462,-12.40563,20.18426
220,7.333,0.683,7.033,-0.675,-9.54964,-0.99090,18.91163
221,7.367,1.482,8.115,1.770,-33.25881,-4.63387,21.92179
222,7.400,-5.256,19.607,11.135,-56.85319,33.29998,-48.82058
223,7.433,1.501,11.020,2.061,18.82882,20.40472,-11.06558
224,7.467,1.456,12.598,7.246,-29.78000,-11.95266,-0.26697
225,7.500,-1.988,13.479,3.554,-11.53049,-20.30156,-9.14201
226,7.533,-2.464,9.728,3.589,-7.73166,4.09587,2.18189
227,7.567,-1.732,7.621,2.529,-34.94202,13.79354,15.40091
228,7.600,-0.821,7.193,2.685,-13.29051,19.76830,11.08650
229,7.633,-0.566,6.998,3.139,8.83988,15.34494,6.56464
230,7.667,-0.586,7.469,3.505,3.01836,15.36746,6.00303
231,7.700,-0.147,8.142,3.067,-10.74057,11.96637,-0.18681
232,7.733,0.089,9.636,2.271,-17.13109,4.48300,-1.66146
233,7.767,-0.113,10.271,1.767,-7.73222,-8.51329,-0.87312
234,7.800,-0.770,11.170,1.767,-5.77686,-9.19003,-6.04816
235,7.833,-0.751,10.133,1.763,1.32915,-8.59113,-9.28024
236,7.867,-1.007,9.538,1.159,1.54585,-9.75334,-7.05257
237,7.900,-0.855,9.725,1.172,2.68474,-6.63177,-4.54462
238,7.933,-0.557,9.400,1.404,3.19187,-6.59711,-4.97825
239,7.967,-0.903,9.202,1.276,-0.00720,-6.94070,-8.16749
240,8.000,-1.211,9.252,1.276,-3.07201,-3.73893,-8.65140
241,8.033,-0.864,9.561,1.114,-3.21719,-2.72850,-7.68293
242,8.067,-0.453,9.863,0.756,-2.05216,-2.22175,-6.65907
243,8.100,-0.712,9.540,0.549,1.92424,-2.60934,-8.89056
244,8.133,-1.065,9.701,0.065,2.99154,-1.40373,-8.80850
245,8.167,-0.875,9.541,-0.314,1.38624,0.77627,-6.58633
246,8.200,-0.751,9.156,-0.609,0.98660,4.08551,-5.29835
247,8.233,0.012,10.422,0.481,-12.21996,-0.91923,-0.93506
248,8.267,0.446,11.766,1.101,-8.89909,-9.55303,5.15567
249,8.300,-0.322,11.082,2.748,9.90696,-16.28419,6.08125
250,8.333,-0.865,8.871,4.047,7.51034,6.54237,-6.22448
251,8.367,-0.401,9.716,4.155,5.12180,7.41417,3.66839
252,8.400,0.163,10.212,3.153,1.08960,-0.92052,20.35163
253,8.433,0.701,10.070,2.601,-6.75892,-0.87130,4.02798
254,8.467,1.806,11.411,1.934,-10.25475,2.20300,-19.36784
255,8.500,1.131,10.846,1.578,4.49443,1.71892,-18.37368
256,8.533,-0.011,8.943,1.216,16.62024,0.81143,-9.88144
257,8.567,-0.448,8.886,0.966,22.35410,6.12888,-3.28088
258,8.600,0.715,9.228,0.230,30.03788,4.43193,-0.48044
259,8.633,1.803,8.001,0.024,21.09641,-7.85971,-1.66053
260,8.667,0.584,5.817,-0.518,12.01466,-4.94786,1.58772
261,8.700,0.440,5.686,-1.044,-1.32801,-1.87941,11.43609
262,8.733,1.669,5.924,-1.136,-23.64527,-7.39824,25.40318
263,8.767,-0.363,19.355,14.902,-85.61707,65.47769,-12.53218
264,8.800,-1.211,15.612,1.907,-19.59459,-10.58147,-20.44388
265,8.833,4.355,10.862,9.073,-1.39355,-7.40579,34.09700
266,8.867,1.274,15.322,4.550,-10.22843,-24.47350,-7.85171
267,8.900,-1.194,10.435,3.771,37.96020,-39.31651,-12.52972
268,8.933,-2.648,7.183,3.738,0.09458,-2.86276,2.21208
269,8.967,-2.028,6.107,2.843,-15.82381,13.98717,17.32476
270,9.000,-0.730,6.730,3.027,5.72754,18.19598,18.64152
271,9.033,-0.411,7.249,3.228,8.63617,14.27835,17.65080
272,9.067,-0.024,8.747,3.163,-6.37913,13.30305,7.91491
273,9.100,0.105,9.896,2.039,-11.39131,5.48908,0.27199
274,9.133,-0.491,10.310,2.100,-2.64557,-3.92941,-4.44956
275,9.167,-0.673,9.935,2.095,-1.13138,-6.54259,-3.23933
276,9.200,-0.681,9.256,2.024,-2.93334,-9.66365,-1.36947
277,9.233,-0.944,9.351,1.516,-7.14335,-6.88147,-4.20192
278,9.267,-1.007,9.680,1.292,-5.34869,0.40731,-11.96375
279,9.300,-0.896,9.788,1.194,-4.65504,0.86470,-14.67930
280,9.333,-0.866,9.799,1.258,-3.94243,2.82220,-10.62930
281,9.367,-0.642,9.457,1.337,-3.13228,2.58360,-8.75266
282,9.400,-0.664,9.720,1.153,-3.94593,-1.08540,-8.48226
283,9.433,-0.408,9.766,1.031,-1.35719,-5.88105,-6.99386
284,9.467,-0.255,9.629,0.799,-1.75024,-8.90301,-6.37124
285,9.500,-0.192,9.772,0.468,-1.88558,-12.34052,-6.97028
286,9.533,-0.028,10.024,0.233,-0.17571,-12.60204,-10.54141
287,9.567,-0.074,9.047,-0.216,9.18993,-20.59757,-11.95187
288,9.600,-0.447,9.074,0.039,7.87379,-20.14538,-11.98509
289,9.633,0.355,10.871,0.692,-16.96919,-13.43092,-7.67409
290,9.667,0.313,12.192,2.512,-14.22620,-13.36477,0.14298
291,9.700,-1.386,10.868,3.421,8.23462,-30.70301,4.65041
292,9.733,-1.711,9.430,3.908,-1.74240,-2.02153,-1.90231
293,9.767,-0.022,10.210,3.854,8.87325,17.26477,8.15225
294,9.800,-0.257,10.312,3.709,19.79819,1.13614,24.22516
295,9.833,0.841,10.209,3.293,11.29459,8.25938,6.76811
296,9.867,1.244,10.825,2.961,4.95659,0.54802,-12.90258
297,9.900,0.775,10.452,1.683,18.77499,2.72993,-18.62058
298,9.933,0.193,8.754,1.712,24.74510,4.11926,-6.65579
299,9.967,0.017,8.526,1.829,19.49848,6.35407,0.12231
300,10.000,0.885,8.531,0.462,22.18655,3.48580,6.95439
301,10.033,1.343,6.924,-0.668,4.63808,-1.71989,13.94992
302,10.067,1.359,4.614,-0.546,-8.00557,-14.76373,19.68972
303,10.100,1.896,4.747,-0.650,-27.53180,-24.78888,25.69363
304,10.133,0.615,9.645,5.911,-58.16709,15.71621,10.76706
305,10.167,-8.363,19.613,3.659,-76.40293,-17.27248,-67.50023
306,10.200,3.473,10.768,0.143,37.74291,69.25653,11.89172
307,10.233,1.815,14.301,8.468,-24.88214,13.65425,-3.59058
308,10.267,-0.692,12.700,2.611,22.57349,-36.15053,-15.71985
309,10.300,-1.088,8.086,3.910,21.44584,-8.95417,-5.85960
310,10.333,-1.732,6.630,2.640,-27.13014,8.35687,7.94633
311,10.367,-1.051,7.468,2.466,-8.17603,14.71929,11.64388
312,10.400,-0.308,7.670,2.808,10.63369,12.21160,14.36127
313,10.433,-0.012,8.536,3.165,-5.21766,8.08651,8.69026
314,10.467,0.273,9.185,2.396,-8.01542,1.09935,-6.73434
315,10.500,-0.153,9.561,2.092,-3.31337,-6.80954,-9.62108
316,10.533,-0.567,9.615,2.106,-4.87080,-9.07122,-5.43657
317,10.567,-0.646,9.589,1.855,-7.80118,-8.89651,-1.72326
318,10.600,-0.687,9.538,1.268,-9.49389,-10.13946,0.36164
319,10.633,-0.487,9.653,1.173,-9.45798,-7.35990,-1.66635
320,10.667,-0.321,9.883,1.465,-4.90028,-8.32218,-7.33075
321,10.700,-0.605,9.930,1.281,-0.58201,-9.01277,-14.46678
322,10.733,-0.866,9.504,1.256,-2.45776,-5.91724,-10.78764
323,10.767,-0.834,9.620,1.268,-6.72876,-3.98463,-6.40081
324,10.800,-0.671,9.591,1.176,-6.49736,-2.22701,-7.86096
325,10.833,-0.363,9.550,0.869,-7.58553,1.80466,-9.04783
326,10.867,-0.633,9.711,0.648,-9.07807,4.19393,-3.92093
327,10.900,-0.593,9.782,0.140,-7.52086,4.99109,-0.97383
328,10.933,-0.539,10.112,-0.142,-9.66944,1.56874,-2.22018
329,10.967,0.029,10.458,-0.080,-8.03955,5.24736,-6.28100
330,11.000,0.345,11.534,1.334,-4.58234,-0.26166,-5.48232
331,11.033,0.392,12.209,2.952,4.13809,-10.10317,1.10980
332,11.067,0.413,10.609,4.024,11.43127,-13.77934,2.84491
333,11.100,0.004,8.756,4.066,10.22317,-3.28509,2.01848
334,11.133,-0.324,8.929,3.386,12.25375,2.16537,4.95078
335,11.167,0.063,10.283,3.213,3.52612,4.60910,7.20633
336,11.200,1.054,10.975,2.206,4.36848,9.67346,0.64397
337,11.233,1.952,10.558,2.120,5.69052,7.08753,-6.56803
338,11.267,1.397,8.791,2.093,11.66619,7.18049,-7.90657
339,11.300,0.397,8.429,2.150,14.27896,4.16624,3.29404
340,11.333,0.261,9.833,1.502,11.33704,2.14744,8.19792
341,11.367,0.987,9.342,0.053,12.99809,-8.42892,10.63577
342,11.400,1.343,6.007,-1.789,29.93002,-22.82373,22.79167
343,11.433,1.755,4.803,-1.629,24.55615,-14.59822,31.05265
344,11.467,0.514,6.339,0.411,-28.73757,-22.33061,38.25273
345,11.500,-12.025,19.514,16.726,-70.63872,83.78699,-30.75601
346,11.533,0.721,9.997,-1.056,10.77515,7.34445,-7.81389
347,11.567,1.773,8.914,6.993,-13.80723,21.97244,19.44441
348,11.600,1.398,13.748,3.596,-32.31167,-12.31817,-16.82817
349,11.633,-1.432,9.463,3.706,30.87251,-9.70264,-16.60479
350,11.667,-2.793,6.935,2.997,-22.42958,10.49821,3.45937
351,11.700,-1.525,7.330,2.443,-33.64132,20.50890,10.86790
352,11.733,-1.043,8.141,2.696,-2.56896,15.76323,12.70475
353,11.767,-0.600,8.758,3.026,-5.54552,14.02855,9.84954
354,11.800,0.213,9.319,2.299,-17.04312,8.67059,-0.54593
355,11.833,0.192,9.787,0.996,-14.08671,0.42760,-5.95695
356,11.867,-0.206,9.863,0.687,-8.94073,-9.80191,-4.05832
357,11.900,-0.329,9.763,0.837,-6.63970,-14.63254,-5.95403
358,11.933,-0.840,9.737,0.924,-4.03523,-15.10762,-7.74867
359,11.967,-0.837,9.659,0.672,-0.99621,-12.18860,-6.67017
360,12.000,-0.765,9.316,0.914,3.15810,-9.28128,-4.96701
361,12.033,-0.992,9.421,1.028,3.41523,-7.50415,-4.33749
362,12.067,-0.904,9.492,0.734,0.18079,-2.93862,-5.77908
363,12.100,-0.371,9.622,0.479,-1.26306,-1.70942,-7.77826
364,12.133,-0.243,9.870,0.023,-1.82287,-5.09135,-8.55003
365,12.167,-0.397,10.234,0.244,0.52067,-9.65613,-7.77708
366,12.200,-0.686,10.380,-0.153,6.02394,-9.48228,-6.19308
367,12.233,-0.976,10.377,-0.463,9.68363,-5.93345,-6.86385
368,12.267,-1.224,10.122,-0.298,10.67165,1.38721,-5.31664
369,12.300,-1.302,10.346,0.312,4.78435,8.91316,-3.33150
370,12.333,0.212,11.168,0.615,-1.37787,8.05520,-0.95384
371,12.367,0.905,11.692,1.299,4.82032,-11.06119,-1.59994
372,12.400,-0.469,9.796,2.428,14.98525,-17.81358,-15.64385
373,12.433,-1.018,8.771,4.091,1.98101,3.31686,-18.85685
374,12.467,-0.155,9.362,3.467,12.13819,10.64874,-4.15768
375,12.500,-0.210,9.666,3.671,18.35445,2.86140,13.91943
376,12.533,0.563,9.783,2.783,4.72224,2.10635,10.07649
377,12.567,1.824,11.008,2.149,0.26149,-0.80540,-8.86682
378,12.600,1.031,10.247,1.781,9.18111,1.79916,-10.42918
379,12.633,0.310,9.284,1.348,26.69344,0.35405,1.53599
380,12.667,0.222,9.677,0.683,28.30093,-1.15488,5.18952
381,12.700,1.207,9.117,0.633,30.88706,-4.97297,1.92252
382,12.733,1.575,7.733,-0.259,14.87816,-12.08208,2.54859
383,12.767,1.011,6.168,-1.167,10.17012,-10.80388,11.49048
384,12.800,0.758,6.339,-0.692,-10.85093,-11.41532,16.64061
385,12.833,0.827,6.980,-0.784,-35.51896,-5.56881,27.83063
386,12.867,-1.022,15.850,9.253,-43.10978,39.06238,10.39539
387,12.900,-2.532,15.993,1.907,-16.06922,-11.84586,-46.84379
388,12.933,5.744,8.097,7.981,-4.82667,14.23105,12.85811
389,12.967,1.971,12.973,6.187,-22.09031,-14.18396,-10.90755
390,13.000,-2.304,11.472,3.420,21.90598,-32.02182,-14.70076
391,13.033,-2.800,8.256,3.626,-1.85806,1.48400,1.51362
392,13.067,-1.461,7.063,3.242,-24.64837,11.79903,11.57705
393,13.100,-0.230,7.331,3.139,0.74435,8.25671,10.88241
394,13.133,-0.957,7.381,3.496,1.58733,9.60170,10.09585
395,13.167,-0.924,8.394,3.260,-17.76713,10.56230,2.80687
396,13.200,-0.559,9.509,2.107,-14.96261,5.59489,-7.49664
397,13.233,-0.405,10.016,1.585,-8.10670,-0.05840,-9.77148
398,13.267,-0.339,9.939,1.824,-10.20149,-4.13783,-4.01673
399,13.300,-0.303,9.890,1.429,-9.18256,-5.33671,-4.00956
400,13.333,-0.349,9.702,1.340,-3.44458,-7.77950,-6.14841
401,13.367,-0.374,9.681,1.276,-0.92573,-7.99549,-7.16021
402,13.400,-0.468,9.404,1.297,0.68093,-8.47527,-7.47406
403,13.433,-0.722,9.304,1.304,-0.27311,-9.20287,-5.37473
404,13.467,-0.736,9.537,1.319,-1.46864,-6.65197,-3.51248
405,13.500,-0.314,9.570,1.019,2.05936,-4.65766,-5.50375
406,13.533,-0.480,10.043,0.790,2.19486,-4.57239,-6.27005
407,13.567,-0.787,10.097,0.682,5.49952,-0.52102,-7.64898
408,13.600,-0.769,9.971,0.513,5.05289,4.39900,-6.68912
409,13.633,-0.789,10.316,0.527,-0.90048,9.02746,-4.54288
410,13.667,0.071,10.912,1.063,-2.08578,2.56165,0.39475
411,13.700,0.341,10.926,1.468,1.58626,-9.72966,3.05073
412,13.733,0.716,10.719,2.048,-1.45895,-15.25752,-3.25332
413,13.767,-0.171,9.755,2.367,5.32319,-6.82042,-11.03341
414,13.800,-1.263,9.452,3.333,11.77874,7.70206,-7.95710
415,13.833,-0.678,9.135,3.772,17.67292,15.74338,3.30848
416,13.867,0.425,8.927,3.129,14.82481,3.04038,15.07816
417,13.900,2.271,9.820,2.867,0.25519,-9.71488,1.36024
418,13.933,1.880,10.566,2.847,-5.21801,-15.64449,-20.01843
419,13.967,0.130,10.116,2.202,-1.68062,-6.51740,-19.37326
420,14.000,-0.434,9.538,1.823,10.98882,2.62313,-4.43946
421,14.033,-0.342,10.107,1.376,15.49598,11.07436,6.17979
422,14.067,0.950,10.455,1.203,32.70674,11.69494,9.12060
423,14.100,2.226,9.459,1.220,29.14596,4.03988,5.67534
424,14.133,2.384,7.462,0.126,12.00200,-14.50522,8.38009
425,14.167,1.719,5.751,-0.167,-2.16130,-29.17807,10.74019
426,14.200,1.565,5.371,-0.769,-21.99125,-33.45718,9.60317
427,14.233,1.314,5.830,0.323,-38.65252,-20.79516,14.15644
428,14.267,-7.650,19.190,19.043,-8.88471,61.74573,-53.39406
429,14.300,-2.573,12.584,0.468,-0.84484,35.06335,0.97591
430,14.333,6.072,7.979,8.797,1.15911,-24.35111,34.80627
431,14.367,1.224,14.576,3.685,-1.06122,-35.35356,-7.76277
432,14.400,-3.521,9.709,4.637,17.41159,-40.84955,-19.28312
433,14.433,-3.819,7.236,3.976,-18.69155,17.14166,5.56138
434,14.467,-2.924,6.265,3.784,-19.75939,26.09409,18.20872
435,14.500,-0.047,7.756,3.023,0.87778,6.63108,17.03520
436,14.533,0.185,8.417,4.233,-1.45595,0.98389,15.41178
437,14.567,-0.212,8.346,3.594,-17.32858,-2.55514,3.58578
438,14.600,-0.067,9.369,2.761,-14.03801,-9.26175,-2.55036
439,14.633,-0.198,10.602,2.533,-5.15768,-19.43166,-3.25968
440,14.667,-0.442,10.112,2.246,2.20589,-27.61075,-5.24198
441,14.700,-1.004,9.636,2.288,-2.44976,-25.76279,-7.78508
442,14.733,-1.272,9.486,1.985,-2.40270,-21.55348,-7.32249
443,14.767,-1.317,9.405,1.999,-3.80737,-16.35243,-7.00814
444,14.800,-1.171,9.567,1.963,-4.59607,-9.89562,-5.98480
445,14.833,-0.934,9.624,2.140,-1.29449,-9.77769,-6.96740
446,14.867,-0.851,9.654,2.338,1.01675,-9.27923,-7.55176
447,14.900,-0.861,9.391,2.020,0.48288,-8.53326,-9.92618
448,14.933,-1.081,9.005,1.745,-2.02472,-3.73915,-14.76955
449,14.967,-0.853,8.834,1.837,-6.32038,6.43418,-20.65948
450,15.000,-0.537,9.788,2.407,-13.85633,12.63667,-16.69437
451,15.033,0.182,10.999,2.544,-10.22822,5.41218,-10.18287
452,15.067,0.678,10.361,2.727,-0.54984,-3.39292,-7.46143
453,15.100,0.351,9.936,2.357,-4.33365,-4.35364,-8.25522
454,15.133,-0.531,9.780,2.195,1.94380,-1.30062,-4.90209
455,15.167,-0.229,9.522,2.411,3.03092,4.59586,-0.23120
456,15.200,0.367,9.831,2.631,3.43917,6.61531,1.73665
