frame_number,sync_timestamp,accel_x,accel_y,accel_z,gyro_x,gyro_y,gyro_z
0,0.000,-0.567,9.584,2.028,-6.87786,-0.15267,-0.19847
1,0.033,-0.523,9.196,1.901,-4.95670,0.77371,-5.09692
2,0.067,-0.144,9.219,1.698,-8.10437,3.62343,-7.51654
3,0.100,0.036,9.905,2.157,-2.24406,4.22894,-5.50398
4,0.133,-0.152,9.724,1.857,-0.69707,1.84477,-14.30804
5,0.167,-1.128,10.378,1.321,10.14249,10.98728,-24.03053
6,0.200,-1.116,12.404,0.936,5.83949,2.29746,-12.50342
7,0.233,-0.639,11.634,0.434,2.28772,-6.30794,0.17365
8,0.267,-0.876,9.282,0.733,-1.68213,-5.14504,8.98214
9,0.300,-2.407,6.406,0.033,-12.07765,4.56590,4.94113
10,0.333,-2.773,5.910,2.173,-14.62539,31.85923,14.99186
11,0.367,0.541,10.275,3.146,-15.42549,38.65339,37.03616
12,0.400,1.508,12.572,4.384,9.40336,4.79398,39.33483
13,0.433,2.568,11.865,1.695,-6.12407,2.61272,1.79121
14,0.467,0.464,10.418,2.362,1.17980,-3.12891,-9.94427
15,0.500,-0.929,11.294,1.935,-19.53434,7.03965,-9.03781
16,0.533,-0.740,11.731,1.693,-3.44467,17.16559,-6.24442
17,0.567,-0.200,8.994,2.048,16.15024,15.48595,-8.00767
18,0.600,-0.048,7.767,2.011,5.28958,13.82429,-6.61032
19,0.633,0.083,8.566,2.061,-2.56755,13.67173,-3.33328
20,0.667,-0.532,9.371,1.338,-8.97720,9.79864,0.84784
21,0.700,-0.220,9.960,1.626,-6.51943,9.29723,4.40439
22,0.733,0.091,10.906,1.524,-8.57738,0.61297,1.52123
23,0.767,0.018,9.700,1.980,-4.40681,2.66481,1.69436
24,0.800,-1.765,10.353,1.425,-4.62592,8.39699,-3.02291
25,0.833,-1.135,10.009,1.549,-1.78323,11.74534,-5.02841
26,0.867,-0.049,9.100,1.250,4.41763,5.57720,-5.43994
27,0.900,-0.086,9.213,1.800,2.00797,2.83957,-4.05320
28,0.933,-0.192,10.090,1.962,4.24679,-0.97745,-1.46798
29,0.967,-0.615,9.962,1.488,1.04539,-11.08413,-2.82986
30,1.000,-0.589,9.871,1.515,-5.33575,-15.09216,-4.80119
31,1.033,-0.137,9.771,0.889,-0.09357,-21.04608,-1.70227
32,1.067,-0.492,9.720,1.296,6.97711,-22.60563,-3.22133
33,1.100,-0.493,10.111,1.551,9.05348,-24.06872,-3.42748
34,1.133,-0.522,9.641,1.500,11.49619,-25.55972,-3.76592
35,1.167,-0.734,9.348,1.326,9.75561,-22.26714,-6.83464
36,1.200,-1.056,9.802,1.281,8.38929,-16.32827,-9.16029
37,1.233,-1.263,10.040,1.576,11.17299,-13.75579,-8.67179
38,1.267,-1.030,9.765,1.657,10.20866,-10.25192,-7.32316
39,1.300,-0.516,9.062,1.936,11.90602,-9.18354,-1.22705
40,1.333,-0.957,8.953,2.527,13.41210,-5.72158,8.74885
41,1.367,-0.779,9.794,1.701,6.81417,-1.84481,11.47328
42,1.400,0.043,10.448,0.759,1.25957,-9.71762,14.49620
43,1.433,1.195,10.533,1.369,-2.74313,-9.77095,6.73252
44,1.467,-0.431,10.804,1.073,-4.59769,-9.39435,-7.49375
45,1.500,-0.230,9.905,0.893,6.73283,-3.02275,-11.94636
46,1.533,-0.225,9.124,0.813,6.49874,0.51908,-7.34084
47,1.567,0.101,9.373,0.984,6.84992,1.85496,-4.72268
48,1.600,0.014,9.388,1.156,5.48091,1.22901,-2.42747
49,1.633,0.379,9.095,0.861,0.79377,0.13488,-1.07636
50,1.667,0.793,9.376,0.611,-4.18078,-1.07885,-2.37625
51,1.700,-0.089,9.876,0.321,-5.78639,-1.70986,1.74811
52,1.733,-0.313,10.086,0.496,-3.81671,3.15537,1.21625
53,1.767,0.528,9.967,0.514,-3.28498,4.71245,0.89821
54,1.800,0.905,10.556,-0.017,-4.55739,4.02303,-3.01548
55,1.833,0.247,11.957,0.417,-13.17621,8.43524,-10.21904
56,1.867,-1.072,11.424,1.106,-16.71781,27.62545,-14.25184
57,1.900,0.098,10.654,2.535,-18.69434,28.80856,-10.88528
58,1.933,0.762,10.754,3.097,-13.54455,17.14457,-6.49872
59,1.967,0.258,9.957,4.289,-10.34557,-2.47128,-8.74055
60,2.000,-0.644,10.080,4.310,2.82444,-7.35109,-10.42755
61,2.033,-0.061,9.865,3.465,-1.53205,-6.88053,-14.62083
62,2.067,-1.066,9.203,2.560,-13.97236,-7.23661,-6.68157
63,2.100,-0.996,9.335,2.176,-11.18307,-6.51920,7.40468
64,2.133,-0.587,9.349,1.867,-7.79380,-8.95425,7.03551
65,2.167,-0.116,8.815,1.567,-0.98227,-10.02548,1.21383
66,2.200,-0.215,8.665,1.439,-0.11423,-13.57272,-1.95391
67,2.233,-0.357,8.689,1.188,4.39440,-16.00002,1.90584
68,2.267,-0.651,8.768,0.586,2.38426,-14.71502,2.58529
69,2.300,-0.534,8.876,0.315,3.80292,-11.57801,-4.69962
70,2.333,-0.706,8.389,0.465,-1.94628,-8.80760,-11.26646
71,2.367,-1.412,8.955,0.242,-0.33588,1.28078,-14.30829
72,2.400,-1.657,10.884,0.065,-4.95445,5.68701,-5.56474
73,2.433,-1.148,10.566,-0.364,-12.17821,4.51613,2.19112
74,2.467,-1.000,9.890,-1.252,-7.34047,3.63619,-1.70249
75,2.500,-0.756,12.500,0.486,-20.86417,14.49594,3.38204
76,2.533,2.253,13.304,3.305,-25.70487,-9.46050,22.48598
77,2.567,0.452,12.694,4.873,3.81015,-41.05868,24.57694
78,2.600,-2.542,9.488,5.418,-1.89115,-25.33875,6.74174
79,2.633,-2.201,9.868,3.680,-6.89435,5.80728,3.42249
80,2.667,-0.465,10.035,2.843,7.51401,8.04828,5.67945
81,2.700,0.943,9.292,2.370,-0.05348,-1.65658,2.55715
82,2.733,1.079,8.921,1.863,-1.50879,-9.38699,-3.69470
83,2.767,0.525,8.826,1.381,5.73051,-19.00272,-1.72750
84,2.800,0.213,8.873,1.492,14.70248,-17.32814,2.58794
85,2.833,-0.071,8.586,1.405,15.29994,-12.40956,3.84472
86,2.867,-0.120,8.437,1.326,5.25930,-9.49878,2.04834
87,2.900,-0.402,8.873,0.757,1.10690,-3.64864,5.62608
88,2.933,-0.161,8.836,0.562,4.98235,-1.73816,11.56002
89,2.967,0.279,8.793,0.574,11.34624,-2.34606,16.86270
90,3.000,1.231,9.500,0.666,13.36635,-7.79405,14.94637
91,3.033,0.002,10.391,0.852,8.33584,-14.04832,0.00490
92,3.067,-0.872,10.481,0.793,9.73802,-8.66148,-11.80929
93,3.100,-0.371,10.738,0.323,22.02288,3.29774,-8.87025
94,3.133,-0.560,12.767,0.882,-2.95127,7.24982,-20.56801
95,3.167,-1.401,12.388,3.521,-63.26958,27.43243,-30.67428
96,3.200,0.476,10.422,5.349,-30.99866,28.03728,-18.70970
97,3.233,-0.902,10.362,4.606,0.59833,14.32318,-14.45036
98,3.267,-0.546,10.340,4.366,0.59292,10.55487,-11.19853
99,3.300,0.528,9.623,3.419,-5.01426,7.74248,-7.98039
100,3.333,-0.482,9.111,2.520,-13.48123,0.97399,-2.99681
101,3.367,-1.369,8.977,1.793,-10.46827,2.37371,3.47789
102,3.400,-1.346,8.914,1.846,-7.09143,8.28244,6.24427
103,3.433,-0.401,8.546,1.328,6.64386,6.86525,5.02286
104,3.467,-0.097,8.146,1.105,4.15779,6.35113,4.03817
105,3.500,-0.666,8.210,0.579,3.60296,7.30521,2.41218
106,3.533,-0.614,8.999,0.385,-0.72763,9.18580,-1.57021
107,3.567,-0.388,9.070,0.235,3.12001,10.10939,-10.18598
108,3.600,-0.323,8.839,0.666,7.49612,9.71791,-15.08407
109,3.633,-1.445,9.541,0.571,4.44213,7.94134,-10.38862
110,3.667,-0.246,10.582,-0.206,-12.37915,6.56996,3.56236
111,3.700,-0.352,10.087,-0.520,-13.22141,-5.19791,4.47299
112,3.733,-1.358,12.005,0.016,-14.62941,10.23955,-0.12937
113,3.767,2.069,14.535,2.369,-34.48345,-7.77102,22.16032
114,3.800,-0.922,10.922,4.784,5.68727,-41.55644,24.85416
115,3.833,-2.308,8.918,5.182,-9.23147,-6.52425,5.06109
116,3.867,-0.466,10.909,3.811,-7.49266,11.05098,3.92898
117,3.900,-0.670,10.640,2.705,10.56493,-5.35946,13.89310
118,3.933,-0.103,8.872,2.569,-0.83833,-9.59750,11.24351
119,3.967,1.045,8.893,1.921,-11.60048,-8.96711,-3.02823
120,4.000,0.642,9.392,1.279,4.46598,-13.80150,-8.09934
121,4.033,-0.318,9.084,1.526,15.55222,-12.48089,-6.60302
122,4.067,-0.508,8.509,1.503,16.70992,-4.31805,3.67940
123,4.100,-0.129,8.724,0.960,14.00755,-1.79394,4.92365
124,4.133,0.103,9.116,0.480,10.35114,-5.24426,4.80915
125,4.167,0.006,8.416,0.441,11.68698,-3.36888,5.90333
126,4.200,0.412,8.258,0.484,9.38159,-4.87802,10.33610
127,4.233,0.656,9.902,0.894,5.55498,-11.77534,9.38060
128,4.267,-0.037,10.600,1.193,1.65690,-11.71835,-5.15853
129,4.300,-0.580,10.573,0.013,9.58393,-7.47143,-10.57139
130,4.333,0.438,10.137,-0.504,22.70803,1.60355,-7.87662
131,4.367,-1.489,12.244,0.583,-29.51794,15.11270,-22.10320
132,4.400,-1.494,12.378,5.356,-69.90059,36.35911,-37.09160
133,4.433,-0.657,11.143,5.591,-7.80000,28.14099,-27.31269
134,4.467,-0.080,10.414,4.343,7.56961,-2.79394,-15.41477
135,4.500,0.182,10.051,3.290,-17.06098,0.20631,-13.00766
136,4.533,-0.865,10.487,2.449,-8.37114,4.36380,-10.62302
137,4.567,-1.686,9.301,2.209,-3.57507,5.59034,1.49875
138,4.600,-1.226,8.332,1.671,-3.94680,7.93902,9.28248
139,4.633,-0.790,8.381,1.641,-1.67621,11.17986,7.66891
140,4.667,-0.236,8.330,1.178,12.25745,8.62964,3.12638
141,4.700,-0.338,8.009,1.065,9.43413,4.89491,1.51445
142,4.733,-0.380,8.134,0.604,0.83690,4.77568,-0.73065
143,4.767,-0.411,8.893,-0.011,0.39670,4.16540,-7.97809
144,4.800,-0.413,9.163,-0.030,10.34250,3.07049,-17.59878
145,4.833,-0.532,9.150,-0.291,9.06724,-0.81672,-14.44187
146,4.867,-0.729,9.938,0.352,-2.40946,-3.94567,-2.41876
147,4.900,-0.415,10.695,-0.735,-11.89093,-6.52927,2.83261
148,4.933,-1.281,10.897,-1.191,-6.68913,0.86237,-1.78099
149,4.967,-0.507,14.292,0.741,-26.02140,4.08838,11.59182
150,5.000,1.766,13.742,4.561,-22.03569,-33.45698,33.20592
151,5.033,-2.468,9.392,5.777,8.97231,-23.88046,11.62274
152,5.067,-2.026,9.355,4.036,-7.88967,11.33805,6.45750
153,5.100,-0.212,11.532,3.096,2.73730,4.78613,14.23766
154,5.133,0.003,9.218,3.077,7.26405,-13.55508,14.91027
155,5.167,0.581,8.515,2.290,-6.95450,-10.21985,-0.12405
156,5.200,0.329,9.213,1.531,-1.60919,-13.70129,-7.66551
157,5.233,-0.051,9.203,1.486,3.79282,-11.42240,-2.88402
158,5.267,-0.848,8.871,1.346,18.61387,-11.03322,3.44976
159,5.300,-0.377,8.182,1.147,19.35147,-4.01289,2.58897
160,5.333,0.170,8.473,1.043,8.73099,-5.01457,2.99325
161,5.367,0.493,8.631,0.438,3.96526,-8.08320,8.57975
162,5.400,0.212,8.325,0.457,12.68759,-9.19593,8.96947
163,5.433,0.231,8.805,0.627,13.71562,-9.83082,8.41758
164,5.467,-0.131,10.031,0.674,4.19287,-9.02165,-2.46860
165,5.500,-0.328,10.432,0.568,0.60936,-11.45825,-9.49490
166,5.533,0.158,10.568,0.120,13.52366,-9.98325,-8.99552
167,5.567,-0.472,12.365,0.415,-2.05690,-4.66385,-16.21733
168,5.600,-2.133,12.931,3.790,-79.10765,36.83100,-43.07285
169,5.633,-0.214,10.676,6.288,-32.03382,36.40886,-30.95757
170,5.667,0.127,10.481,4.447,8.48184,-1.63100,-15.09543
171,5.700,0.071,10.543,3.211,-11.76413,-12.44933,-13.32977
172,5.733,-0.285,10.255,2.526,-9.51075,-5.70917,-13.62209
173,5.767,-1.511,9.255,2.376,-16.87818,-3.39173,-5.76822
174,5.800,-1.623,8.533,1.233,-16.68664,1.96250,5.03084
175,5.833,-1.327,8.922,1.235,-4.49409,9.98201,8.79648
176,5.867,-0.683,8.975,0.960,11.43287,12.22882,5.50369
177,5.900,-0.048,8.121,0.828,12.37401,7.33577,4.60305
178,5.933,-0.212,8.052,0.559,5.97472,5.87531,1.33339
179,5.967,-0.318,8.615,-0.043,-2.17803,6.33069,-4.31328
180,6.000,-0.656,8.842,-0.239,7.26740,4.44272,-11.10699
181,6.033,-0.588,9.139,0.056,10.71508,5.44026,-11.99744
182,6.067,-0.875,9.569,0.184,6.20832,5.43764,-6.37380
183,6.100,-0.728,10.412,-0.472,-9.70243,0.08376,7.72532
184,6.133,-0.942,10.187,-1.059,-8.77139,-3.73330,5.74595
185,6.167,-1.559,12.344,-0.925,-12.06091,11.40456,5.58518
186,6.200,1.544,14.569,2.327,-36.90790,-11.52020,34.61906
187,6.233,0.658,12.098,5.638,6.77929,-44.99227,39.15214
188,6.267,-2.543,9.405,5.850,-3.28477,-11.35591,11.30484
189,6.300,-2.254,11.508,3.848,-12.73661,15.34192,8.39362
190,6.333,-1.022,10.810,1.990,17.35497,4.56013,16.03126
191,6.367,0.392,9.041,2.375,7.40961,-1.91091,7.63349
192,6.400,1.658,8.686,1.448,1.89115,-5.84296,-11.20575
193,6.433,0.943,8.334,1.077,12.70997,-16.47077,-14.78882
194,6.467,0.385,7.976,0.972,23.32080,-18.63869,-6.28463
195,6.500,-0.431,8.617,1.106,17.25199,-15.96188,-0.46566
196,6.533,-1.034,8.558,0.596,17.12225,-9.11664,1.72276
197,6.567,-0.678,8.881,0.334,15.08136,-2.73284,5.31560
198,6.600,0.125,8.933,0.096,15.25954,-1.53437,10.66414
199,6.633,0.852,8.833,0.133,18.08904,-3.38714,10.16783
200,6.667,0.278,9.443,1.187,5.99932,-7.16289,2.92588
201,6.700,-0.280,10.975,1.022,-15.96939,-3.88571,-13.25983
202,6.733,-0.323,10.943,0.104,3.76818,2.52917,-13.08659
203,6.767,-0.294,11.816,0.347,8.79991,8.89870,-13.86067
204,6.800,-1.863,12.440,2.560,-64.41306,44.11484,-38.41267
205,6.833,-0.291,11.456,6.462,-50.67485,58.61202,-34.32775
206,6.867,0.560,11.368,5.182,17.12305,-1.78280,-12.31992
207,6.900,0.220,9.443,3.699,2.70929,-15.67952,-12.00803
208,6.933,0.356,9.637,2.712,-6.85266,-10.97213,-16.58013
209,6.967,-0.797,9.701,2.023,-14.06410,-5.23392,-13.04039
210,7.000,-1.930,9.026,1.456,-18.04580,-0.50372,-2.50358
211,7.033,-1.543,8.720,1.470,-8.19035,4.44803,5.88562
212,7.067,-0.624,8.785,0.979,2.74039,8.40478,5.06351
213,7.100,0.350,8.590,0.563,1.13762,8.90811,2.93127
214,7.133,0.452,7.917,0.519,5.91567,-0.71016,1.97696
215,7.167,-0.026,8.002,-0.290,-6.44010,-1.49364,-4.88030
216,7.200,-0.740,8.389,-0.215,-6.80908,-3.51903,-12.36644
217,7.233,-1.069,9.396,0.235,0.37157,4.12219,-11.19844
218,7.267,-0.739,10.115,0.449,4.45132,3.55831,-4.42591
219,7.300,-0.070,10.127,-0.411,-5.08888,-1.17002,9.51748
220,7.333,-1.175,9.886,-0.978,-6.09425,5.67635,1.59109
221,7.367,-0.789,13.951,0.338,-28.49565,7.05699,13.39368
222,7.400,1.705,14.353,3.706,-30.37392,-18.44309,40.92367
223,7.433,-1.980,10.550,4.583,4.68445,-36.92626,24.36901
224,7.467,-2.891,9.619,4.496,-10.84022,4.11541,10.36643
225,7.500,-0.737,11.540,3.115,4.39017,19.74761,13.42007
226,7.533,-0.016,10.062,2.750,15.18839,4.02548,14.62600
227,7.567,0.683,8.594,2.082,-2.19624,0.20864,-1.66467
228,7.600,0.464,8.985,1.475,-1.87731,0.15968,-10.69458
229,7.633,0.318,8.880,1.157,10.17834,-3.81169,-6.70219
230,7.667,0.130,8.555,0.949,23.69808,-3.82450,1.10208
231,7.700,0.113,8.133,0.886,21.81650,-6.65657,3.15257
232,7.733,0.136,8.159,0.822,8.33518,-6.68443,2.02300
233,7.767,-0.081,8.684,0.174,-3.21890,-5.30788,6.92885
234,7.800,-0.105,8.660,-0.211,4.32847,-2.86254,12.04592
235,7.833,0.081,9.152,0.313,8.77096,-1.72262,13.14996
236,7.867,-0.433,10.515,0.913,3.49618,-3.93639,1.87782
237,7.900,-0.469,10.819,0.424,7.74129,1.45038,-7.74829
238,7.933,0.386,10.426,-0.547,27.94184,-0.35646,-6.90808
239,7.967,1.223,12.218,-0.455,18.88076,-4.79381,-11.09136
240,8.000,-2.258,12.967,2.109,-48.80221,20.24460,-29.10720
241,8.033,-0.919,10.751,5.270,-28.96773,52.16421,-32.54614
242,8.067,0.048,9.179,4.779,10.78121,6.83951,-18.49357
243,8.100,-0.180,10.824,4.535,-14.88609,-4.54218,-16.16790
244,8.133,0.171,11.391,3.589,-13.33348,-3.21379,-21.81679
245,8.167,-1.193,9.418,2.407,-10.09481,-1.24417,-14.67124
246,8.200,-2.258,8.313,1.535,-25.08367,6.38179,4.81733
247,8.233,-1.137,9.152,1.125,-10.40412,4.40217,16.43003
248,8.267,-0.316,9.440,0.406,7.52922,6.17179,11.07339
249,8.300,0.332,8.573,0.954,14.53170,4.64865,0.40738
250,8.333,0.417,7.671,0.766,10.57251,-5.66162,-0.77846
251,8.367,-0.188,8.423,0.280,8.14793,-5.88558,3.19864
252,8.400,-0.654,8.827,-0.261,7.16036,-5.96180,-5.18339
253,8.433,-0.962,8.630,0.075,4.08892,-1.40440,-11.63363
254,8.467,-0.901,8.602,0.090,3.22904,3.15776,-11.75317
255,8.500,-1.365,10.305,-0.204,-2.77869,3.10681,-3.84697
256,8.533,-0.522,10.522,-0.793,-9.51405,-5.73061,9.11992
257,8.567,-1.096,11.263,-0.135,-17.03923,-2.05766,6.52379
258,8.600,0.861,14.772,1.288,-31.32109,-7.79327,16.16080
259,8.633,0.737,13.530,3.823,-2.54079,-48.57027,39.53105
260,8.667,-4.046,8.625,4.982,4.67966,-22.99015,10.25970
261,8.700,-2.674,11.815,5.102,-16.49563,27.22914,13.69509
262,8.733,0.017,11.904,2.019,27.64495,10.77028,29.94663
263,8.767,-0.622,7.792,3.478,25.14930,-4.12486,17.89412
264,8.800,0.972,7.918,2.476,0.27567,8.49606,-5.90704
265,8.833,0.746,8.988,2.394,8.09949,-2.63664,-11.98208
266,8.867,0.551,8.310,1.977,17.16537,-12.95963,-8.55968
267,8.900,-0.141,8.025,1.585,6.19786,-11.59543,-6.87024
268,8.933,-1.113,8.863,1.077,-9.27224,-7.62345,-5.92875
269,8.967,-1.247,9.453,0.729,-6.94898,4.51408,-1.46050
270,9.000,-0.543,9.467,0.311,2.86293,2.86976,2.83988
271,9.033,0.448,8.670,0.217,7.93135,-6.27478,7.54200
272,9.067,0.940,8.293,0.680,10.00492,-7.68455,7.66399
273,9.100,0.474,9.788,0.649,1.45779,-10.57251,-2.87818
274,9.133,-0.381,10.224,1.018,0.44054,-10.64895,-12.92879
275,9.167,-0.083,9.467,1.175,15.58543,-8.95408,-10.57753
276,9.200,-1.492,10.681,1.623,-16.44648,7.63500,-24.32994
277,9.233,-2.231,12.415,5.246,-83.18017,42.47897,-49.94635
278,9.267,-0.661,13.007,4.645,-27.86128,31.08423,-29.92663
279,9.300,0.002,11.463,4.985,5.68835,-9.90719,-10.75552
280,9.333,-0.559,10.250,3.458,-3.70740,-10.30520,-11.99236
281,9.367,-1.020,10.496,3.506,-8.89180,2.50395,-9.95072
282,9.400,-1.738,10.460,2.966,-7.35872,4.40468,-1.20602
283,9.433,-1.405,9.730,2.591,-1.61832,9.56998,3.35115
284,9.467,-0.630,9.392,2.087,7.18068,8.94911,3.31806
285,9.500,-0.065,8.950,2.512,14.67936,8.74811,0.76341
286,9.533,-0.136,7.970,1.820,13.13229,-2.17579,2.26989
287,9.567,-0.602,7.830,1.569,9.72766,0.09440,4.97451
288,9.600,-0.883,9.589,1.523,8.34363,5.14504,-1.58796
289,9.633,-1.360,9.878,1.055,14.94390,5.73512,-11.36148
290,9.667,-0.169,7.958,1.099,-0.71573,2.36870,-9.92081
291,9.700,-0.043,8.042,0.575,-10.63379,4.45799,-2.03051
292,9.733,-0.667,9.363,0.354,-24.05387,3.95922,-1.19580
293,9.767,-1.019,9.780,-0.094,-23.70733,-1.16033,-0.15012
294,9.800,-1.104,9.491,0.436,-18.49624,2.44294,-4.08371
295,9.833,-0.322,10.727,1.903,-20.17032,8.25194,10.59326
296,9.867,1.699,12.546,3.745,-1.75836,-4.84983,20.91853
297,9.900,-0.441,10.374,4.005,8.93086,-15.80878,17.17508
298,9.933,-2.079,9.773,3.282,-13.57778,2.53004,4.79143
299,9.967,-0.872,10.854,2.770,-1.02790,13.93642,9.82954
300,10.000,0.800,10.264,2.346,11.00776,16.00750,11.17558
301,10.033,0.894,10.520,2.756,6.38912,7.83168,6.42387
302,10.067,0.306,10.344,2.240,8.51651,1.79137,-7.67429
303,10.100,0.225,9.558,2.301,10.84725,1.67946,-10.09921
304,10.133,0.202,9.802,1.828,8.19339,3.17809,-7.60815
305,10.167,0.195,9.400,1.848,6.53168,3.78119,-6.07120
306,10.200,0.091,8.612,1.535,-1.32847,5.77099,-4.35878
307,10.233,0.247,8.689,1.539,-10.30275,4.93132,-3.88295
308,10.267,-0.150,9.819,1.657,-13.05093,3.60796,-2.33392
309,10.300,-0.402,10.113,1.533,-5.70715,5.36676,1.74181
310,10.333,-0.245,9.723,1.424,-3.65988,4.88795,4.24211
311,10.367,0.257,10.080,1.551,-5.59793,3.32573,0.38177
312,10.400,0.045,10.075,1.970,-7.07638,4.55734,-2.03067
313,10.433,-0.479,9.863,1.588,-5.52932,8.80911,-1.33338
314,10.467,-0.296,9.575,1.626,-3.78884,10.25950,0.06869
315,10.500,-0.057,9.766,1.511,-4.74045,6.77853,-0.06870
316,10.533,0.249,9.702,1.559,-3.35904,1.12580,-0.73277
317,10.567,-0.445,9.783,1.869,-3.06459,-0.25372,-1.04962
318,10.600,-0.693,10.137,1.742,-3.52670,3.06040,-0.70474
