frame_number,sync_timestamp,accel_x,accel_y,accel_z,gyro_x,gyro_y,gyro_z
0,0.000,0.220,8.849,1.757,-5.80916,-17.25191,-5.59542
1,0.033,0.344,10.726,2.281,-9.44513,-17.18938,-3.95329
2,0.067,0.027,10.755,2.243,5.47766,-23.65071,-1.35147
3,0.100,-0.499,8.896,2.211,11.54459,-28.88101,0.75689
4,0.133,-0.216,8.694,1.683,-2.69329,-12.09898,0.16474
5,0.167,-0.757,9.640,1.723,-11.78920,-5.49240,1.16567
6,0.200,-1.030,9.927,2.051,-3.55481,-1.84411,4.05298
7,0.233,-1.007,9.874,1.856,1.29360,9.65532,4.63660
8,0.267,-0.400,9.878,1.967,-1.48658,11.27356,2.15738
9,0.300,-0.062,10.063,2.063,0.34188,9.30662,2.36912
10,0.333,0.054,9.810,2.013,0.70096,5.27073,1.61608
11,0.367,-0.241,9.533,1.684,-0.33319,5.69445,-1.68387
12,0.400,-0.627,9.507,1.183,-5.96540,11.81847,-5.49663
13,0.433,-1.174,9.717,1.197,-8.36654,19.02842,-2.54187
14,0.467,0.017,10.452,1.470,-5.88974,15.57836,-3.47258
15,0.500,0.475,10.489,1.422,3.13287,7.47896,-3.53260
16,0.533,-0.154,9.707,1.741,8.88621,0.84792,-5.78022
17,0.567,-0.446,9.547,1.731,6.76391,1.48980,-5.28849
18,0.600,-0.339,9.325,2.251,4.97621,9.21444,1.73416
19,0.633,-0.049,9.144,2.174,10.87739,10.04426,9.82636
20,0.667,0.484,9.752,1.964,14.91122,15.23509,9.84533
21,0.700,-0.263,10.863,1.390,5.98378,12.57977,6.19691
22,0.733,-0.283,9.851,0.829,10.51322,11.20519,5.89717
23,0.767,0.365,9.843,1.268,-11.90450,7.76191,3.73421
24,0.800,0.641,9.868,0.892,-9.98604,8.57015,-9.62419
25,0.833,0.417,9.681,0.583,-7.61573,4.50595,-7.77985
26,0.867,-0.266,10.378,0.644,-1.57215,4.49334,-1.92311
27,0.900,-0.230,10.137,0.718,6.92710,4.72658,1.12813
28,0.933,0.188,9.936,0.739,9.23570,1.97654,-0.49256
29,0.967,0.613,10.217,0.520,9.84628,2.30140,-2.14141
30,1.000,0.685,9.589,0.867,11.96740,1.94066,-1.71987
31,1.033,0.560,9.512,0.496,6.12395,-0.05963,-1.68157
32,1.067,0.662,8.934,0.926,-3.89240,-2.10327,-2.42114
33,1.100,0.794,8.820,0.237,-12.50322,-8.53511,-1.25725
34,1.133,1.077,9.954,0.772,-16.77591,-5.62358,-5.59676
35,1.167,-0.824,11.617,1.660,-14.53729,3.52146,-10.74557
36,1.200,-0.721,11.432,3.536,-11.13843,16.92612,-13.14901
37,1.233,0.332,11.311,2.095,-23.12443,9.70752,-5.60647
38,1.267,1.034,10.870,3.190,-19.18755,1.15691,0.71920
39,1.300,0.702,10.907,3.548,-8.15056,-3.44952,-3.51270
40,1.333,-0.658,9.876,3.703,2.20550,-5.64122,-9.41923
41,1.367,-0.619,8.589,3.005,-1.94887,-2.58733,-8.09309
42,1.400,-0.962,8.957,2.410,-10.41502,2.22326,2.42510
43,1.433,-0.763,9.455,1.824,-10.79246,5.15163,7.87422
44,1.467,-0.605,9.613,1.776,-10.18497,2.89242,9.22570
45,1.500,-0.257,8.960,1.420,-6.28796,1.88255,6.22879
46,1.533,-0.437,8.873,1.289,-4.75600,-3.38085,3.41350
47,1.567,-0.748,9.696,0.875,-3.39624,-3.24863,3.15981
48,1.600,-0.001,9.484,0.819,4.78025,-8.41785,1.41014
49,1.633,-0.053,9.428,0.799,2.75084,-9.10268,-3.29048
50,1.667,-0.560,9.693,0.308,5.00559,-8.17719,-8.62063
51,1.700,-0.482,8.948,0.378,6.50771,-7.96711,-12.26856
52,1.733,-0.714,8.769,0.196,-0.48366,-4.68758,-10.87644
53,1.767,-0.573,9.342,0.358,-3.27995,-2.99432,-8.17009
54,1.800,-0.790,9.741,0.322,0.84903,-3.47389,-1.05794
55,1.833,-1.175,9.989,0.305,-1.32916,-1.70438,0.73428
56,1.867,-1.159,11.111,0.285,-12.67374,4.68259,5.27821
57,1.900,-0.211,12.331,0.984,-19.98168,4.22233,12.46454
58,1.933,0.638,12.672,2.177,-12.65465,-17.33015,17.54909
59,1.967,-1.829,10.430,2.769,-0.29086,-14.26378,2.35101
60,2.000,-1.807,9.479,3.655,-6.59956,10.38164,0.84477
61,2.033,0.415,9.134,3.109,12.99814,18.25412,8.23077
62,2.067,-0.249,9.108,3.237,4.70939,5.65837,17.07490
63,2.100,0.945,9.665,2.491,-6.25125,0.25122,4.83196
64,2.133,0.784,9.787,2.013,-6.26488,-1.02419,-11.45682
65,2.167,0.212,9.979,1.675,-1.89757,1.82709,-9.85692
66,2.200,0.107,9.598,1.608,9.04493,1.27042,-1.31246
67,2.233,-0.036,9.207,1.434,8.17097,3.60811,1.65193
68,2.267,0.173,9.155,1.273,5.53557,2.78451,-2.16147
69,2.300,0.406,9.191,0.950,5.60978,-0.93584,-2.39064
70,2.333,0.171,9.320,0.733,9.03208,-3.97856,0.77901
71,2.367,0.371,8.973,0.624,9.30207,-12.80052,8.20238
72,2.400,0.894,8.250,-0.092,7.47707,-25.15918,11.56019
73,2.433,0.499,9.419,0.814,-1.22306,-24.83089,9.86639
74,2.467,-0.558,10.199,0.327,-4.33493,-10.09540,-4.52264
75,2.500,0.277,9.836,-0.080,4.12349,-7.29494,-9.09403
76,2.533,1.471,9.895,-0.397,20.37396,-1.39049,-1.12038
77,2.567,-0.680,11.731,1.020,-18.72569,-6.13197,-12.87496
78,2.600,-2.008,13.823,5.641,-54.08103,38.25875,-46.71850
79,2.633,-0.664,11.535,3.999,-22.07066,28.95189,-28.91021
80,2.667,1.849,9.848,4.438,5.59497,-9.68150,-9.99216
81,2.700,0.974,10.344,3.284,-4.24099,-21.87281,-7.25909
82,2.733,-0.439,10.919,3.420,0.90012,-17.10788,-7.18324
83,2.767,-1.447,8.935,1.986,-3.87064,-13.42287,-6.05720
84,2.800,-2.035,8.416,1.524,-15.22605,1.82428,3.34899
85,2.833,-1.244,9.523,1.546,-6.64084,11.91279,8.92885
86,2.867,-0.364,9.460,1.692,12.70187,6.21467,9.57437
87,2.900,0.045,8.640,1.722,12.88410,2.30335,4.74935
88,2.933,-0.259,8.950,1.415,4.69630,1.44298,3.10710
89,2.967,-0.538,9.468,0.974,7.32842,-0.44278,-0.58595
90,3.000,-0.399,9.271,0.464,10.20280,-1.48518,-3.82811
91,3.033,0.053,8.765,0.342,7.97991,-1.11403,-8.66303
92,3.067,-0.389,8.339,0.096,9.07906,2.59806,-13.28995
93,3.100,-1.169,9.543,0.352,0.03020,8.73803,-7.45886
94,3.133,-0.510,9.331,0.283,-3.82257,9.42241,-2.53423
95,3.167,-0.183,9.002,-0.501,-2.43049,0.47340,-6.61733
96,3.200,-0.868,10.923,-0.421,-8.80152,11.29841,-4.32439
97,3.233,0.527,13.487,1.765,-57.05576,7.27744,21.48880
98,3.267,0.933,13.799,5.000,-20.07041,-32.81076,29.63456
99,3.300,-2.797,10.379,4.609,6.30758,-16.09331,10.14523
100,3.333,-1.492,9.877,3.211,-9.19664,20.53095,9.77883
101,3.367,0.176,10.751,3.304,6.97346,12.71084,16.76967
102,3.400,0.368,9.478,2.957,8.80487,-4.95675,13.36466
103,3.433,1.694,8.956,2.355,-2.86469,-6.54232,-3.22359
104,3.467,0.589,9.398,1.601,1.18967,-10.82385,-12.91667
105,3.500,0.083,9.042,1.880,14.82195,-9.65059,-9.03362
106,3.533,-0.398,8.685,1.561,17.33128,-6.81122,-1.38366
107,3.567,-0.241,9.120,1.062,9.17264,-0.10605,-0.80147
108,3.600,0.161,9.540,1.007,5.25854,2.15448,-2.49397
109,3.633,0.219,9.300,0.537,9.17299,-2.05151,-0.31685
110,3.667,0.000,8.460,0.476,10.56313,-6.89575,6.50863
111,3.700,0.600,8.468,0.706,10.28689,-6.21691,13.45816
112,3.733,0.747,9.881,0.715,5.42226,-6.78219,3.71029
113,3.767,0.312,9.969,0.512,1.05454,-6.79468,-2.76457
114,3.800,0.903,10.187,-0.169,9.69394,-0.08829,-5.99958
115,3.833,1.029,10.270,0.198,-1.33063,-18.37258,-5.02525
116,3.867,-1.335,12.252,1.327,-23.64576,8.76002,-17.67656
117,3.900,-1.638,12.771,4.335,-33.21407,45.35137,-33.79322
118,3.933,0.457,11.343,4.054,-3.45490,28.45529,-25.06314
119,3.967,0.874,10.049,4.765,2.33480,-10.72976,-12.15571
120,4.000,0.500,9.427,3.426,4.12540,-16.54808,-13.83520
121,4.033,-0.235,9.139,2.807,-6.44687,-3.39138,-16.15416
122,4.067,-1.954,9.054,2.040,-15.14681,3.82396,-1.95427
123,4.100,-1.446,9.084,2.031,-14.52793,8.93830,10.52116
124,4.133,-0.537,9.367,1.995,-4.57811,5.93647,11.27416
125,4.167,0.499,9.180,1.941,7.87205,7.19132,6.68139
126,4.200,0.382,8.640,1.532,2.05714,-1.60013,2.78350
127,4.233,-0.497,8.752,1.206,2.86653,-4.85028,2.98005
128,4.267,-0.453,9.153,1.052,2.87378,-3.57879,-2.03474
129,4.300,-0.220,8.686,1.016,-1.11931,-3.51356,-6.41130
130,4.333,-0.273,8.608,0.462,-4.19523,-3.22114,-9.92668
131,4.367,-0.344,9.295,0.130,-2.63498,-3.15749,-10.40253
132,4.400,-0.290,10.194,0.120,-6.45524,-4.09602,-3.53689
133,4.433,-0.668,9.861,0.007,-7.86522,-8.24840,-3.89736
134,4.467,-1.332,10.031,-0.559,-9.26787,-0.49694,-5.47606
135,4.500,0.270,12.308,0.775,-27.00783,8.99599,8.56739
136,4.533,1.844,12.972,2.405,-29.70464,-12.32904,29.83181
137,4.567,-1.916,11.971,3.914,-2.74445,-27.59098,17.37580
138,4.600,-2.411,9.928,4.147,-3.64491,3.92232,8.92547
139,4.633,-0.456,9.926,3.229,12.86933,23.19532,13.40079
140,4.667,0.290,10.074,2.894,17.52638,19.74280,14.56210
141,4.700,1.152,8.976,2.282,7.01344,3.15102,5.96952
142,4.733,1.369,8.774,2.029,-1.29771,-2.78141,-9.02149
143,4.767,0.513,8.811,1.406,-0.36973,-2.78445,-14.90909
144,4.800,0.028,9.040,1.655,3.16049,6.65850,-7.68042
145,4.833,-0.511,9.698,0.971,3.54802,11.49854,2.60826
146,4.867,0.061,9.584,0.796,6.72863,11.37690,6.26506
147,4.900,0.984,9.625,0.942,7.90905,1.84899,7.33440
148,4.933,1.161,9.051,0.393,12.56976,-8.36765,6.86677
149,4.967,1.618,8.105,0.018,12.40455,-17.35658,8.92770
150,5.000,0.615,8.979,0.461,3.79574,-19.73212,9.93892
151,5.033,0.056,10.637,0.434,-2.61611,-15.95684,-0.39705
152,5.067,-0.278,10.617,0.120,3.31250,-11.38087,-9.24380
153,5.100,0.693,9.759,0.454,22.53001,-10.28179,-2.78564
154,5.133,-0.910,12.260,0.587,-10.57471,7.69894,-9.39774
155,5.167,-2.263,13.153,4.331,-41.67946,46.99589,-32.59532
156,5.200,0.787,11.311,4.759,-24.50378,34.06174,-15.46590
157,5.233,1.056,10.594,4.372,1.71034,-0.34378,-7.99385
158,5.267,0.207,10.204,3.721,-0.97701,-12.88682,-12.76092
159,5.300,-0.048,9.891,2.854,-3.51945,-7.69532,-15.54930
160,5.333,-1.775,9.071,2.187,-9.37752,-1.16966,-4.33062
161,5.367,-1.800,8.631,1.835,-7.43331,4.86788,7.15002
162,5.400,-0.902,9.137,1.839,-6.03128,8.78032,10.68942
163,5.433,-0.410,8.996,1.681,0.74854,5.51091,8.32867
164,5.467,-0.102,8.964,1.229,6.07774,-2.30167,3.27776
165,5.500,-0.184,8.494,0.819,3.95023,-1.72483,2.11001
166,5.533,-0.024,9.032,0.770,-0.39272,-4.53315,0.30303
167,5.567,-0.303,9.429,0.247,5.24932,-3.36944,-6.12304
168,5.600,-0.809,9.116,0.424,7.69677,0.06513,-14.52003
169,5.633,-1.035,8.934,-0.005,4.94909,4.30189,-12.76969
170,5.667,-0.760,9.363,0.013,3.19074,7.02977,-6.83209
171,5.700,-0.691,9.895,-0.504,-7.11081,4.29740,2.86577
172,5.733,-1.372,10.144,-0.531,-11.45899,7.49316,0.44876
173,5.767,-0.934,11.052,-0.579,-11.33356,20.66557,-2.52081
174,5.800,1.322,12.389,2.706,-37.72828,3.31131,16.05167
175,5.833,1.962,13.398,3.677,-21.02170,-42.37499,36.12095
176,5.867,-2.035,9.384,5.279,14.12793,-18.97837,7.11528
177,5.900,-2.380,10.119,3.620,-14.73464,17.05955,-1.90354
178,5.933,-0.535,10.922,2.497,13.88693,23.05065,9.95410
179,5.967,0.808,9.583,2.586,6.52170,10.51135,14.41967
180,6.000,2.105,9.507,2.121,-9.80231,-0.71818,-5.98112
181,6.033,1.055,9.882,1.633,3.39379,-10.93378,-12.10644
182,6.067,0.219,8.985,1.587,17.16769,-14.08842,-5.98635
183,6.100,-0.144,8.477,1.614,15.07183,-9.22288,-4.91050
184,6.133,0.015,8.544,1.252,11.28551,-3.95569,-3.16054
185,6.167,0.132,8.886,0.832,6.51576,-0.20192,-0.61289
186,6.200,-0.170,8.671,0.723,4.97462,-3.71892,3.82036
187,6.233,0.052,8.073,0.338,1.79439,-2.09651,9.30339
188,6.267,0.304,8.674,0.595,1.44147,0.44588,12.55235
189,6.300,0.249,10.732,0.303,-5.61414,1.20591,3.45503
190,6.333,-0.191,11.218,0.445,-2.86092,5.25988,-7.63898
191,6.367,0.372,9.732,-1.232,25.29066,1.99545,-7.45144
192,6.400,1.386,10.900,0.448,5.41827,-24.16227,-9.74686
193,6.433,-1.096,11.997,2.210,-27.95640,19.35710,-25.78949
194,6.467,-1.009,12.471,3.856,-34.17116,42.93139,-33.93681
195,6.500,0.981,10.833,3.578,5.31659,20.07403,-9.08822
196,6.533,0.769,9.498,3.524,2.49708,-3.67038,-4.55474
197,6.567,0.088,9.732,3.976,5.98425,-8.43872,-9.16667
198,6.600,0.059,9.702,3.023,2.41601,-7.61633,-13.09061
199,6.633,-1.105,8.880,2.319,-6.35928,-6.82887,-2.62635
200,6.667,-1.368,9.008,2.092,-13.89259,-1.15285,9.04967
201,6.700,-0.559,9.394,1.578,-10.37976,-3.95621,8.42684
202,6.733,-0.300,9.158,1.447,0.35779,-6.25847,1.92398
203,6.767,-0.171,8.845,1.364,-1.38844,-4.20494,2.28696
204,6.800,-0.460,9.107,0.830,0.33038,-2.21361,2.49305
205,6.833,-0.688,9.302,0.841,4.57688,2.31441,0.19082
206,6.867,-0.129,9.403,0.491,3.52971,3.40661,-3.94788
207,6.900,0.053,8.617,0.196,-0.45673,0.66464,-6.45739
208,6.933,-0.659,8.419,0.420,-5.16323,5.23962,-6.13769
209,6.967,-1.153,9.554,0.137,-11.30030,8.84399,-4.19990
210,7.000,-0.516,10.232,-0.241,-9.76467,5.08599,3.24027
211,7.033,-0.335,9.792,-0.580,-5.40756,0.26401,0.24439
212,7.067,-0.680,11.434,-0.441,-17.95288,11.26144,0.93657
213,7.100,0.930,12.623,0.605,-27.25445,1.12300,17.16927
214,7.133,0.868,12.750,2.692,-15.79938,-24.22287,30.75348
215,7.167,-2.596,10.737,3.685,7.77065,-19.18193,11.01795
216,7.200,-1.884,9.551,4.242,-1.64012,20.70763,7.10133
217,7.233,-0.112,10.016,2.907,19.77222,22.11680,15.64312
218,7.267,-0.058,9.552,2.436,12.27082,4.88421,20.73863
219,7.300,1.607,9.376,1.865,-2.66889,-2.13541,-3.60809
220,7.333,1.416,9.863,1.562,-2.13841,-6.50746,-17.54738
221,7.367,0.320,9.656,1.492,10.82032,-7.33249,-13.34126
222,7.400,-0.357,9.115,1.438,17.79218,-6.95995,-5.72091
223,7.433,-0.079,8.998,1.292,18.66500,-6.85621,1.42076
224,7.467,0.055,8.877,1.206,9.97367,-2.99448,-3.73073
225,7.500,0.151,9.077,0.535,1.92263,-4.37640,-0.96692
226,7.533,0.205,8.585,0.062,4.16255,-7.61546,5.57313
227,7.567,0.329,8.209,0.312,1.68817,-6.81325,11.50026
228,7.600,0.488,9.544,0.612,0.48695,-10.26772,7.62876
229,7.633,-0.068,10.450,0.955,1.01565,-4.73929,-4.76975
230,7.667,0.306,10.100,-0.382,8.56196,-4.59014,-5.73499
231,7.700,0.695,10.332,-0.002,6.09711,-20.74958,-4.49666
232,7.733,-0.832,12.110,1.024,-22.75512,7.12985,-22.79921
233,7.767,-1.415,13.007,4.842,-33.89283,37.12951,-34.34844
234,7.800,0.058,11.204,4.096,-12.12153,22.42616,-17.36251
235,7.833,0.545,9.559,4.539,-4.62067,-4.39394,-6.77750
236,7.867,0.798,9.903,3.463,-0.96230,-3.32231,-14.32099
237,7.900,-0.504,10.018,3.009,-7.05467,-7.45710,-11.80732
238,7.933,-1.623,9.063,2.071,-8.34966,-2.65982,1.42622
239,7.967,-1.171,8.773,1.749,-11.29037,2.50498,7.96637
240,8.000,-0.819,9.219,1.526,-9.80116,5.97027,7.17858
241,8.033,-0.787,9.055,1.577,6.12248,-2.36864,4.09667
242,8.067,-0.253,8.690,1.042,3.50713,-0.40521,4.72611
243,8.100,-0.409,8.653,0.795,-0.90848,3.25037,2.37499
244,8.133,-0.191,9.240,0.570,-0.02824,-1.06923,-3.26877
245,8.167,-0.136,9.001,-0.224,5.11832,-2.38268,-10.79996
246,8.200,-0.333,8.795,-0.009,3.99694,-1.50654,-15.99793
247,8.233,-0.895,9.480,-0.251,3.43746,3.81515,-12.73912
248,8.267,-1.014,10.170,-0.276,4.69838,0.44592,-2.07709
249,8.300,-0.122,10.103,-0.572,2.73647,-8.05488,4.92796
250,8.333,-0.624,9.728,-0.583,-2.23046,-3.69137,-0.03008
251,8.367,-0.944,11.601,-0.379,-11.86546,12.46340,0.49943
252,8.400,0.608,12.714,1.967,-21.74004,11.80926,15.80101
253,8.433,0.107,12.678,4.304,-6.41513,-28.30437,28.67128
254,8.467,-1.797,9.961,4.825,1.89972,-6.45402,12.03262
255,8.500,-1.079,10.050,3.930,-12.65468,23.72269,5.06670
256,8.533,-0.357,10.093,2.727,9.37377,9.61830,15.85617
257,8.567,-0.103,8.807,2.508,0.34682,-1.50568,11.92375
258,8.600,2.166,8.979,2.109,-15.05845,1.02791,-6.32526
259,8.633,1.473,9.546,1.798,-4.06340,-10.30751,-14.25342
260,8.667,0.244,9.355,1.516,11.00202,-9.51245,-11.63429
261,8.700,-0.409,8.645,1.439,13.35417,-4.94025,-3.14192
262,8.733,-0.370,8.987,1.095,2.87892,0.44233,-1.47682
263,8.767,-0.087,9.594,0.826,0.82938,2.02436,-1.38854
264,8.800,0.141,9.664,0.116,4.60583,-3.95327,2.05374
265,8.833,0.500,9.114,0.041,12.91480,-9.86545,9.33305
266,8.867,0.729,8.393,0.289,17.38027,-8.86776,12.56123
267,8.900,0.728,8.144,0.401,9.38605,-20.74791,9.75352
268,8.933,-0.748,10.879,0.505,-14.32713,-5.21141,-7.45957
269,8.967,-0.084,9.898,0.352,-3.32594,-6.90716,-9.32414
270,9.000,0.209,9.648,0.221,15.35420,-6.46543,2.03280
271,9.033,-1.782,12.108,0.390,-24.56249,18.30875,-25.90825
272,9.067,-0.182,14.388,4.416,-57.77717,44.04282,-33.74016
273,9.100,1.522,13.074,4.168,5.31411,17.17603,-15.11449
274,9.133,-0.030,10.242,4.543,15.20156,-8.37429,-3.40272
275,9.167,-0.043,9.697,3.654,-9.72887,-12.92161,-6.85816
276,9.200,0.064,10.025,2.207,-10.86172,-8.58001,-5.04492
277,9.233,-1.012,8.742,1.930,-9.23664,-15.32129,1.23636
278,9.267,-1.114,8.754,1.610,-18.86516,-9.80756,-0.77072
279,9.300,-0.335,9.509,1.567,-6.40706,-10.09559,0.27320
280,9.333,0.063,9.296,1.087,13.32989,-13.60520,-0.23735
281,9.367,-0.057,8.389,1.170,8.74569,-15.57703,1.39199
282,9.400,-0.547,8.347,0.788,-0.15687,-13.22456,1.49997
283,9.433,-0.656,8.977,0.435,-2.81601,-7.54043,-2.09105
284,9.467,-0.344,8.544,0.173,-0.30473,-2.00575,-3.13943
285,9.500,-0.408,7.894,0.322,-4.89734,6.45788,-6.69403
286,9.533,-0.972,8.835,-0.207,-5.39685,15.72343,-9.55560
287,9.567,-0.461,10.883,-0.163,-9.49678,17.82482,2.93283
288,9.600,0.381,10.012,-0.258,-3.11487,6.62966,5.30105
289,9.633,-0.911,10.034,-0.937,-1.59842,15.89669,-1.54881
290,9.667,-0.976,13.085,0.184,-27.07804,19.19543,15.97047
291,9.700,1.695,14.110,1.572,-19.23386,2.39147,30.15251
292,9.733,-0.326,12.706,2.471,-0.07647,-29.30462,14.78628
293,9.767,-2.665,10.061,3.379,-4.50910,-11.94308,-5.69439
294,9.800,-1.596,8.815,3.765,5.36966,20.27075,5.17127
295,9.833,-0.111,9.054,3.419,20.34068,22.80240,15.18242
296,9.867,0.578,9.440,2.668,6.31446,10.17143,16.55970
297,9.900,1.738,9.614,2.099,-3.41143,-2.07650,-4.84125
298,9.933,0.479,9.232,1.600,-10.93589,-1.33274,-12.91130
299,9.967,0.331,9.313,1.009,-8.81247,3.83742,-10.01977
300,10.000,-0.004,9.391,0.726,-0.88464,6.53437,-5.00994
301,10.033,-0.072,9.237,0.354,4.98921,5.89358,-5.08123
302,10.067,0.180,9.217,0.472,6.06173,1.50809,-2.13487
303,10.100,0.177,9.002,0.238,11.19228,-5.24450,2.65681
304,10.133,0.017,8.649,-0.167,12.15454,1.85698,7.18850
305,10.167,-0.011,8.159,-0.378,8.13125,4.61911,9.81809
306,10.200,0.255,8.941,0.002,-0.67304,2.21676,9.13791
307,10.233,-0.070,11.145,0.173,-9.97451,7.48400,-1.81661
308,10.267,0.325,10.914,0.333,3.85834,6.26594,-8.36723
309,10.300,1.097,10.183,0.377,16.74617,-10.89518,-7.02098
310,10.333,0.528,11.385,0.337,-6.74957,9.53277,-23.17135
311,10.367,-1.356,13.381,3.437,-40.63496,26.84177,-34.68263
312,10.400,0.707,11.668,3.239,-10.92375,18.27647,-16.50774
313,10.433,1.436,9.850,3.821,7.73853,-8.61766,-1.36794
314,10.467,0.649,9.213,3.710,1.85621,-26.06512,-12.22770
315,10.500,-0.549,10.286,3.463,4.72210,-13.29118,-16.58288
316,10.533,-1.274,9.441,2.577,-4.52759,-8.64334,-12.50100
317,10.567,-1.914,9.218,2.083,-11.98035,-2.72638,5.66375
318,10.600,-0.719,9.938,1.835,-8.41051,1.26762,9.75526
319,10.633,-0.480,9.647,1.868,-0.08944,-0.06758,4.96046
320,10.667,-0.472,8.751,1.611,3.61037,-2.68856,3.26093
321,10.700,-0.354,8.682,1.206,-2.53765,-2.45616,6.01296
322,10.733,-0.223,9.355,0.923,-2.07616,-3.01897,3.47116
323,10.767,-0.342,9.458,0.853,1.49604,-4.14704,-2.18016
324,10.800,-0.390,8.676,0.521,-2.21340,-1.63234,-8.47980
325,10.833,-0.550,8.499,0.227,-12.60408,2.70600,-10.13505
326,10.867,-0.601,9.157,-0.212,-9.66581,8.24066,-11.00213
327,10.900,-0.423,9.365,-0.040,-9.42828,6.49388,-4.86842
328,10.933,-0.537,9.338,0.208,-8.09825,5.79787,-3.63214
329,10.967,-0.366,9.242,-0.172,-6.27964,6.77599,-6.48151
330,11.000,0.161,10.933,0.084,-15.11067,0.70146,-0.01397
331,11.033,0.668,12.249,1.085,-23.29265,-11.12682,12.27359
332,11.067,-0.115,11.999,2.088,-9.13011,-20.42447,19.78113
333,11.100,-0.765,10.558,2.377,-9.16450,-14.86691,15.54209
334,11.133,-1.270,10.289,3.036,-6.76408,-7.13464,9.12255
335,11.167,-0.011,9.804,2.775,6.18961,4.46769,6.30341
336,11.200,0.577,9.533,2.942,5.47832,-0.55114,4.71096
337,11.233,0.838,10.270,2.211,-4.72184,-5.53893,-0.38124
338,11.267,0.586,10.480,2.011,-2.60440,-8.53470,-5.92577
339,11.300,0.177,10.276,1.613,4.95214,-7.85758,-9.66338
340,11.333,-0.176,9.974,1.407,12.59185,-1.90074,-8.55385
341,11.367,-0.385,9.650,1.816,16.42413,2.99451,-8.10766
342,11.400,0.155,9.796,1.791,13.21890,4.90241,-8.17698
343,11.433,0.322,9.889,1.766,12.26230,6.92005,-6.65085
