frame_number,sync_timestamp,accel_x,accel_y,accel_z,gyro_x,gyro_y,gyro_z
0,0.000,-0.002,0.299,10.542,-1.11450,1.95420,-1.19847
1,0.033,-0.091,0.122,10.561,-1.23925,-0.15062,-1.05733
2,0.067,-0.134,0.107,10.592,-1.36198,-0.18194,-0.99296
3,0.100,-0.027,0.168,10.615,-1.26899,0.00217,-1.07743
4,0.133,0.011,0.099,10.487,-1.42466,-0.15687,-0.98320
5,0.167,0.040,0.057,10.601,-1.13915,-1.92648,-1.07552
6,0.200,0.004,0.112,10.689,-1.15747,-0.00326,-1.14700
7,0.233,0.048,0.087,10.563,-1.22762,-1.92612,-0.97193
8,0.267,-0.105,0.105,10.442,-1.15153,1.63872,-1.06590
9,0.300,0.010,0.145,10.651,-1.26279,-0.96317,-1.06967
10,0.333,0.063,0.141,10.612,-1.26062,0.02251,-1.09751
11,0.367,-0.117,0.151,10.652,-1.16037,-0.10708,-0.93139
12,0.400,-0.065,0.106,10.587,-1.26947,-0.05204,-1.10219
13,0.433,-0.121,0.112,10.579,-1.20611,-0.10843,-0.99080
14,0.467,-0.012,0.076,10.645,-1.29574,0.08555,-1.00632
15,0.500,-0.022,0.144,10.587,-1.10551,-0.09866,-1.12546
16,0.533,0.047,0.107,10.533,-1.15075,0.07176,-1.09713
17,0.567,0.016,0.125,10.582,-1.42935,0.00669,-1.07822
18,0.600,-0.008,0.113,10.683,-1.32136,-0.23994,-0.99401
19,0.633,0.011,0.143,10.671,-1.30377,-0.22280,-1.16027
20,0.667,0.006,0.138,10.569,-1.22512,-0.04041,-1.06376
21,0.700,-0.024,0.125,10.577,-1.25035,-1.01885,-0.99976
22,0.733,-0.109,0.155,10.648,-1.20699,-0.12451,-0.94568
23,0.767,-0.011,0.081,10.600,-1.25432,-1.77608,-0.93897
24,0.800,-0.003,0.079,10.577,-1.29335,0.00874,-1.11993
25,0.833,0.014,0.287,10.502,-1.16721,0.10324,-1.12869
26,0.867,0.061,0.104,10.691,-1.30681,-0.06582,-0.98291
27,0.900,0.042,0.105,10.629,-1.21265,-0.83592,-1.03269
28,0.933,0.007,0.133,10.471,-1.26245,0.03998,-0.96982
29,0.967,0.013,0.155,10.608,-1.33863,0.40063,-1.03118
30,1.000,-0.018,0.133,10.428,-1.23007,-0.01527,-0.98576
31,1.033,0.053,0.143,10.535,-1.06359,-0.01744,-1.05123
32,1.067,0.065,0.084,10.607,-1.15449,0.48220,-1.18276
33,1.100,0.001,0.114,10.574,-1.23772,-0.07854,-1.03926
34,1.133,0.123,0.097,10.659,-1.27735,0.12578,-1.12650
35,1.167,-0.007,0.143,10.646,-1.18033,1.43573,-1.13089
36,1.200,-0.001,0.122,10.567,-1.30312,-0.01850,-1.04144
37,1.233,-0.100,0.128,10.622,-1.27993,-0.09049,-1.16470
38,1.267,0.025,0.125,10.536,-1.23009,0.03490,-1.19702
39,1.300,-0.012,0.106,10.628,-1.09989,-0.07910,-0.96877
40,1.333,0.005,0.170,10.582,-1.23492,-0.07410,-1.12656
41,1.367,0.022,0.054,10.599,-1.12545,-0.03200,-1.14250
42,1.400,-0.053,0.160,10.688,-1.23121,0.89378,-1.12542
43,1.433,0.063,0.176,10.578,-1.22756,-0.14218,-1.04508
44,1.467,-0.037,0.134,10.473,-1.29225,-0.01242,-1.13559
45,1.500,-0.003,0.106,10.505,-1.12976,-1.11389,-1.00765
46,1.533,0.115,0.167,10.645,-1.33366,-0.05619,-0.95057
47,1.567,0.012,0.116,10.535,-1.38566,-1.51134,-0.97889
48,1.600,0.010,0.134,10.569,-1.17889,0.09817,-1.03814
49,1.633,-0.100,0.149,10.634,-1.12068,-0.07779,-0.90803
50,1.667,0.033,0.121,10.616,-1.33445,0.47588,-1.02725
51,1.700,0.070,0.135,10.592,-1.27811,-0.16252,-1.16686
52,1.733,-0.002,0.073,10.616,-1.21373,0.04362,-0.93892
53,1.767,-0.028,0.095,10.548,-1.26176,-0.46475,-0.99636
54,1.800,0.053,0.122,10.669,-1.24967,-0.04582,-0.95093
55,1.833,-0.017,0.131,10.579,-1.17955,-0.15921,-1.03051
56,1.867,0.039,0.118,10.543,-1.19297,-0.00289,-1.06364
57,1.900,0.027,0.086,10.618,-1.25742,0.03051,-0.98472
58,1.933,-0.123,0.078,10.593,-1.12830,-0.18431,-0.89238
59,1.967,0.013,0.125,10.497,-1.21311,-0.14655,-1.11848
60,2.000,0.035,0.161,10.603,-1.47001,0.74280,-0.92581
61,2.033,0.053,0.015,10.525,-1.17268,0.00651,-1.07931
62,2.067,0.046,0.152,10.631,-1.29694,-0.16136,-1.07011
63,2.100,-0.073,0.138,10.468,-1.16886,-1.07636,-0.97704
64,2.133,0.019,0.117,10.508,-1.15912,-0.09048,-1.20012
65,2.167,-0.025,0.112,10.528,-1.49316,1.45557,-0.96521
66,2.200,0.021,0.077,10.549,-1.33816,-0.09045,-1.08073
67,2.233,0.069,0.132,10.629,-1.43961,-0.18585,-0.96650
68,2.267,0.028,0.099,10.586,-1.23265,1.44658,-1.10758
69,2.300,0.020,0.234,10.530,-1.26347,-0.01345,-0.99433
70,2.333,-0.016,0.096,10.713,-1.19579,-0.35114,-0.99166
71,2.367,-0.007,0.098,10.629,-1.22396,-0.16131,-1.02619
72,2.400,-0.057,0.233,10.586,-1.15919,0.65907,-1.05669
73,2.433,0.057,0.154,10.589,-1.17676,-0.03712,-0.96690
74,2.467,0.051,0.107,10.587,-1.20370,-0.10928,-1.06496
75,2.500,0.018,0.063,10.568,-1.14501,-0.00217,-0.99997
76,2.533,-0.016,0.094,10.595,-1.22901,0.29491,-1.08542
77,2.567,0.131,0.123,10.582,-1.26675,0.02194,-0.96148
78,2.600,0.016,0.131,10.634,-1.27149,1.09789,-1.06870
79,2.633,0.026,0.110,10.628,-1.30352,-0.28101,-1.04506
80,2.667,0.011,0.116,10.654,-1.19778,-0.01007,-1.09819
81,2.700,0.004,0.146,10.578,-1.20185,-0.00236,-1.11236
82,2.733,0.021,0.092,10.471,-1.17333,0.05752,-0.94110
83,2.767,-0.037,0.090,10.599,-1.24617,-0.04804,-1.09370
84,2.800,0.020,0.105,10.597,-1.18536,-0.00427,-1.02623
85,2.833,0.032,0.127,10.604,-1.25553,0.15494,-1.05348
86,2.867,0.013,0.147,10.578,-1.14433,0.06107,-1.12866
87,2.900,0.010,0.107,10.623,-1.19419,-0.00338,-1.08833
88,2.933,0.039,0.129,10.596,-1.42818,0.02670,-1.22028
89,2.967,0.066,0.092,10.542,-1.21085,-0.06214,-0.96116
90,3.000,0.013,0.137,10.617,-1.29226,-0.12647,-1.11888
91,3.033,0.011,0.023,10.597,-1.22610,-0.26143,-0.97891
92,3.067,-0.013,0.132,10.537,-1.36092,0.05230,-0.99529
93,3.100,0.035,0.048,10.605,-1.34896,0.89152,-1.10798
94,3.133,-0.015,0.093,10.713,-1.12392,-0.09270,-1.04761
95,3.167,0.016,0.134,10.653,-1.35699,-0.06104,-1.05815
96,3.200,0.035,0.098,10.597,-1.16031,0.74323,-0.98042
97,3.233,0.038,0.070,10.582,-1.20828,0.15666,-0.91455
98,3.267,0.115,0.138,10.659,-1.19484,0.05028,-1.07484
99,3.300,0.106,0.101,10.608,-1.28607,1.08816,-1.03420
100,3.333,-0.042,0.101,10.441,-1.26791,0.01021,-1.07886
101,3.367,0.086,0.250,10.600,-1.32460,-0.04061,-1.09238
102,3.400,-0.052,0.092,10.589,-1.33153,-0.09152,-1.06543
103,3.433,0.018,0.101,10.615,-1.30381,0.14282,-0.95844
104,3.467,-0.041,0.133,10.616,-1.22172,-0.07018,-1.11954
105,3.500,0.051,0.139,10.645,-1.31405,-0.20506,-1.00975
106,3.533,-0.024,0.145,10.615,-1.00419,-0.19137,-1.08806
107,3.567,0.035,0.106,10.600,-1.23629,-0.09282,-1.06289
108,3.600,0.049,0.122,10.496,-1.22029,-1.01256,-1.05243
109,3.633,0.079,0.067,10.644,-1.39191,-0.21527,-1.04038
110,3.667,0.136,0.152,10.582,-1.47542,0.01630,-1.05632
111,3.700,-0.026,0.138,10.604,-1.22468,1.11497,-1.08502
112,3.733,0.057,0.116,10.710,-1.49081,-0.05015,-0.95126
113,3.767,-0.005,0.119,10.565,-1.23735,1.94075,-1.15409
114,3.800,-0.016,0.144,10.566,-1.17440,0.08845,-1.11996
115,3.833,-0.009,0.125,10.625,-1.23369,-0.25861,-1.11924
116,3.867,0.049,0.088,10.556,-1.22683,0.26199,-1.13155
117,3.900,-0.070,0.053,10.647,-1.24429,-0.00872,-1.10358
118,3.933,-0.051,0.161,10.558,-1.28138,-1.75894,-0.95554
119,3.967,-0.070,0.120,10.487,-1.31874,-0.09408,-1.07593
120,4.000,0.035,0.072,10.573,-1.33694,-0.00536,-1.02287
121,4.033,0.139,0.064,10.642,-1.17812,-0.03635,-1.16321
122,4.067,0.134,0.086,10.598,-1.16829,-0.04363,-1.18427
123,4.100,-0.007,0.139,10.583,-1.23996,0.78671,-1.03377
124,4.133,-0.047,0.164,10.628,-1.02032,0.10728,-1.06902
125,4.167,-0.018,0.174,10.660,-1.38128,-0.05379,-1.05272
126,4.200,0.071,0.026,10.634,-1.33477,-0.08075,-1.13407
127,4.233,-0.015,0.122,10.660,-1.35149,0.03414,-1.04473
128,4.267,0.049,0.114,10.537,-1.17085,0.10142,-1.04508
129,4.300,-0.021,0.248,10.506,-1.42791,0.00636,-1.17139
130,4.333,0.013,0.093,10.582,-1.31916,-1.75475,-0.99563
131,4.367,0.069,0.058,10.570,-1.17517,1.51838,-1.00942
132,4.400,-0.009,0.104,10.614,-1.31076,0.07301,-1.03817
133,4.433,0.127,0.085,10.595,-1.29195,-0.19378,-0.94942
134,4.467,-0.015,0.156,10.617,-1.34608,0.31674,-1.03667
135,4.500,0.047,0.110,10.632,-1.27261,0.17995,-1.19849
136,4.533,0.020,0.286,10.445,-1.18968,-0.11122,-1.02068
137,4.567,0.048,0.105,10.634,-1.10510,-1.43850,-1.08943
138,4.600,0.069,0.131,10.643,-1.28787,-0.10354,-1.07634
139,4.633,0.005,0.147,10.581,-1.28833,-0.01126,-1.24397
140,4.667,0.045,0.144,10.597,-1.25772,-1.45710,-1.09378
141,4.700,-0.029,0.170,10.530,-1.28568,1.06383,-1.09273
142,4.733,-0.018,0.125,10.610,-1.31554,-1.75519,-1.15817
143,4.767,-0.055,0.113,10.646,-1.29220,-0.04358,-0.98362
144,4.800,-0.014,0.153,10.597,-1.27904,-0.00546,-1.04582
145,4.833,0.133,0.122,10.616,-1.09629,-0.06281,-1.04580
146,4.867,0.061,0.155,10.661,-1.23376,-0.41060,-1.09999
147,4.900,-0.011,0.157,10.633,-1.26396,-0.03925,-1.03165
148,4.933,0.113,0.130,10.610,-1.29046,-0.01305,-0.98657
149,4.967,-0.034,0.070,10.542,-1.13017,-0.36521,-0.98625
150,5.000,0.076,0.153,10.630,-1.25404,-0.12104,-1.11661
151,5.033,-0.040,0.162,10.714,-1.28500,-1.77768,-1.12039
152,5.067,0.012,0.134,10.595,-1.29008,0.39244,-0.86846
153,5.100,-0.085,0.120,10.550,-1.10581,-0.03163,-1.06653
154,5.133,-0.032,0.154,10.575,-1.24427,-0.37067,-1.14286
155,5.167,0.066,0.111,10.620,-1.28173,0.47637,-1.16501
156,5.200,0.010,0.108,10.537,-1.15048,-0.01959,-0.98473
157,5.233,0.036,0.131,10.467,-1.22466,-0.08035,-1.18108
158,5.267,0.013,0.063,10.613,-1.28463,-0.08360,-1.01895
159,5.300,-0.002,0.230,10.660,-1.23116,0.00528,-1.13838
160,5.333,0.016,0.094,10.650,-1.43755,-0.07495,-1.28800
161,5.367,0.030,0.130,10.658,-1.17712,0.03367,-1.12872
162,5.400,-0.148,0.117,10.646,-1.11336,0.78860,-1.11565
163,5.433,-0.053,0.124,10.614,-1.15807,0.09936,-1.01882
164,5.467,0.011,0.090,10.660,-1.31116,-1.45966,-0.99705
165,5.500,-0.019,0.168,10.590,-1.34894,-0.02620,-1.17776
166,5.533,-0.016,0.100,10.554,-1.20210,-0.06039,-1.03454
167,5.567,-0.046,0.157,10.639,-1.10345,-1.57788,-1.10249
168,5.600,-0.030,0.106,10.580,-1.21710,-0.93525,-0.97274
169,5.633,0.067,0.132,10.649,-1.25246,0.06697,-1.00174
170,5.667,0.062,0.102,10.693,-1.07446,-0.05773,-1.18762
171,5.700,-0.033,0.107,10.556,-1.17088,1.90546,-1.04052
172,5.733,0.042,0.109,10.652,-1.17503,0.04210,-1.02758
173,5.767,0.096,0.050,10.500,-1.20470,-0.10560,-1.06460
174,5.800,-0.136,0.090,10.603,-1.31216,0.08861,-1.01826
175,5.833,-0.031,0.231,10.631,-1.39433,0.49662,-1.16208
176,5.867,0.102,0.175,10.553,-1.31815,1.03447,-0.96752
177,5.900,-0.059,0.094,10.681,-1.34053,-0.13574,-1.20931
178,5.933,0.005,0.080,10.475,-1.18369,-1.76197,-1.21179
179,5.967,-0.007,0.089,10.639,-1.36297,1.24331,-1.01025
180,6.000,-0.031,0.236,10.643,-1.24553,0.68104,-0.93563
181,6.033,0.058,0.122,10.585,-1.21078,-0.01900,-1.22974
182,6.067,0.023,0.240,10.620,-1.38104,0.21182,-1.13303
183,6.100,0.065,0.046,10.540,-1.22747,0.09017,-0.99809
184,6.133,0.007,0.089,10.632,-1.17669,0.78679,-1.18356
185,6.167,0.118,0.123,10.618,-1.10503,0.38901,-1.11663
186,6.200,0.088,0.145,10.568,-1.22399,-0.17257,-1.09084
187,6.233,0.030,0.109,10.561,-0.99877,0.74215,-1.02222
188,6.267,0.007,0.117,10.596,-1.31566,1.54114,-1.04107
189,6.300,0.012,0.128,10.454,-1.36133,-0.16908,-1.18887
190,6.333,0.063,0.118,10.638,-1.24680,-1.85497,-1.02546
191,6.367,-0.054,0.209,10.580,-1.35659,-0.65093,-1.14220
192,6.400,0.037,0.089,10.555,-1.12542,0.04072,-0.95277
193,6.433,0.033,0.190,10.613,-1.40525,-1.32728,-0.99153
194,6.467,0.055,0.091,10.522,-1.13907,0.22430,-1.11583
195,6.500,0.050,0.095,10.669,-1.19084,-0.85640,-1.10390
196,6.533,0.040,0.135,10.500,-1.37865,-0.10297,-1.01527
197,6.567,-0.077,0.126,10.623,-1.50900,-0.09654,-1.04933
198,6.600,0.042,0.099,10.653,-1.34664,0.10767,-0.94075
199,6.633,-0.007,0.126,10.582,-1.24295,0.03144,-0.97316
200,6.667,0.002,0.079,10.580,-1.21456,0.02341,-1.09189
201,6.700,0.032,0.140,10.474,-1.26280,-0.20824,-1.04736
202,6.733,-0.092,0.154,10.643,-1.21168,-0.78365,-1.12028
203,6.767,0.040,0.125,10.520,-1.13413,-0.17703,-1.05415
204,6.800,0.053,0.126,10.611,-1.21595,1.05409,-1.06533
205,6.833,0.127,0.029,10.561,-1.22504,-0.04657,-1.00691
206,6.867,0.017,0.135,10.600,-1.24325,0.05233,-1.10465
207,6.900,0.072,0.090,10.540,-1.09811,-0.79444,-1.15923
208,6.933,0.079,0.100,10.585,-1.40713,0.04109,-1.11379
209,6.967,0.082,0.097,10.554,-1.20358,0.05131,-0.94656
210,7.000,-0.067,0.119,10.566,-1.24309,-0.08828,-1.01204
211,7.033,-0.027,0.109,10.628,-1.43229,-0.02554,-1.17233
212,7.067,0.071,0.146,10.688,-1.39695,0.46621,-1.01855
213,7.100,-0.003,0.126,10.536,-1.24208,1.04860,-0.92476
214,7.133,-0.059,0.027,10.604,-1.23084,-0.00328,-1.12581
215,7.167,-0.033,0.241,10.643,-1.34280,-0.37898,-1.08326
216,7.200,0.011,0.133,10.619,-1.35663,-0.09156,-1.07964
217,7.233,0.046,0.150,10.656,-1.19664,-0.11774,-1.09566
218,7.267,0.032,0.138,10.655,-1.29625,0.17012,-1.10031
219,7.300,0.012,0.103,10.600,-1.29374,0.05051,-1.11554
220,7.333,0.026,0.110,10.545,-1.30706,1.74950,-0.85843
221,7.367,-0.093,0.081,10.686,-1.16356,-0.07815,-1.07522
222,7.400,-0.014,0.211,10.646,-1.27918,-0.10142,-1.05236
223,7.433,-0.133,0.103,10.628,-1.34969,0.10217,-1.06179
224,7.467,0.112,0.114,10.672,-1.40822,-1.51181,-1.07997
225,7.500,0.035,0.110,10.603,-1.19735,-0.07856,-1.12429
226,7.533,-0.089,0.129,10.650,-1.24896,-0.14909,-1.06142
227,7.567,0.002,0.115,10.594,-1.17957,-0.01594,-0.90476
228,7.600,-0.025,0.117,10.622,-1.22905,-0.07635,-1.01745
229,7.633,-0.013,0.071,10.452,-1.01599,0.08802,-1.01386
230,7.667,0.028,0.139,10.590,-1.23193,-0.07413,-0.96043
231,7.700,-0.011,0.112,10.653,-1.21149,0.08184,-1.06866
232,7.733,0.039,0.122,10.586,-1.24936,-0.25976,-1.12251
233,7.767,0.010,0.217,10.483,-1.21773,-0.12461,-0.91745
234,7.800,-0.000,0.174,10.631,-1.10037,-0.02288,-1.01631
235,7.833,0.040,0.139,10.522,-1.20462,0.16542,-0.93492
236,7.867,-0.015,0.118,10.617,-1.31657,1.44360,-0.89682
237,7.900,-0.082,0.143,10.643,-1.19846,-0.09492,-0.95748
238,7.933,-0.011,0.014,10.677,-1.34279,-0.08615,-1.05779
239,7.967,-0.011,0.150,10.572,-1.12226,0.00933,-1.05819
240,8.000,-0.017,0.106,10.638,-1.30752,-1.03006,-1.18216
241,8.033,0.007,0.073,10.534,-1.36132,0.00073,-1.09996
242,8.067,0.097,0.067,10.577,-1.30823,-0.08543,-0.95420
243,8.100,0.054,0.131,10.642,-1.20825,0.09811,-1.01420
244,8.133,0.056,0.020,10.654,-1.16753,0.15196,-1.07669
245,8.167,0.034,0.099,10.629,-1.35034,-1.35485,-0.93352
246,8.200,-0.011,0.118,10.621,-1.11667,-0.10792,-1.17564
247,8.233,-0.077,0.048,10.614,-1.16140,-0.24428,-0.91494
248,8.267,0.018,0.139,10.551,-1.26027,-0.12795,-1.08724
249,8.300,-0.010,0.121,10.629,-1.42373,-0.03123,-1.07744
250,8.333,-0.064,0.167,10.574,-1.19953,-0.02568,-0.93673
251,8.367,0.001,0.164,10.650,-1.24969,0.46226,-0.89095
252,8.400,0.042,0.137,10.555,-1.37841,-0.04468,-1.02945
253,8.433,0.026,0.158,10.577,-1.13122,-0.09489,-0.91091
254,8.467,0.005,0.111,10.586,-1.29008,1.51482,-0.88061
255,8.500,-0.002,0.115,10.624,-1.25081,0.18643,-1.10258
256,8.533,-0.015,0.023,10.598,-1.17012,-0.03962,-1.12792
257,8.567,0.016,0.140,10.520,-1.11707,-0.17258,-1.01095
258,8.600,-0.149,0.130,10.569,-1.36534,-0.01968,-1.13627
259,8.633,0.031,0.091,10.565,-0.97520,0.00118,-1.13562
260,8.667,0.080,0.092,10.632,-1.19294,-0.06879,-1.03635
261,8.700,0.072,0.216,10.507,-1.35662,0.00870,-1.06647
262,8.733,-0.016,0.120,10.566,-1.18857,-0.01855,-1.18466
263,8.767,-0.014,0.156,10.533,-1.24099,-0.19550,-0.94009
264,8.800,0.054,0.108,10.586,-1.17226,0.89593,-1.06215
265,8.833,0.014,0.276,10.562,-1.13519,1.76020,-0.90691
266,8.867,0.027,0.101,10.483,-1.19812,-0.05960,-1.17517
267,8.900,0.025,0.129,10.599,-1.33593,0.00324,-1.04252
268,8.933,0.008,0.137,10.659,-1.21740,-0.13779,-0.99523
269,8.967,-0.012,0.096,10.629,-1.17745,-0.09372,-1.14281
270,9.000,0.078,0.080,10.550,-1.29448,-0.14174,-1.07963
271,9.033,0.010,0.131,10.550,-1.29810,-0.11237,-1.15997
272,9.067,0.003,0.101,10.666,-1.11818,-0.08611,-1.03599
273,9.100,0.022,0.119,10.505,-1.35219,0.07856,-1.05886
274,9.133,0.052,0.071,10.566,-1.46600,0.10214,-1.06653
275,9.167,0.105,0.248,10.583,-1.07561,-0.06471,-1.04762
276,9.200,0.017,0.138,10.555,-1.37189,0.08730,-0.93458
277,9.233,0.009,0.136,10.642,-1.17229,-0.15740,-1.05526
278,9.267,0.020,0.090,10.583,-1.39473,-0.10572,-1.04363
279,9.300,-0.018,0.041,10.584,-1.17143,-0.08618,-1.08802
280,9.333,0.062,0.106,10.635,-1.18992,-0.16616,-1.05196
281,9.367,0.040,0.155,10.596,-1.25047,-0.07387,-1.01708
282,9.400,0.079,0.020,10.577,-1.18864,-0.09270,-1.05890
283,9.433,-0.003,0.100,10.589,-1.36313,-0.01565,-1.11455
284,9.467,-0.059,0.137,10.625,-1.43834,-0.06653,-1.13197
285,9.500,0.003,0.119,10.623,-1.20503,-1.91605,-1.07854
286,9.533,0.053,0.125,10.621,-1.29300,0.07236,-1.03634
287,9.567,-0.096,0.095,10.582,-1.39513,-0.15121,-0.95713
288,9.600,0.058,0.126,10.597,-1.30966,-0.09924,-1.01852
289,9.633,0.044,0.274,10.596,-1.24283,0.05131,-1.15195
290,9.667,0.043,0.123,10.633,-1.35038,0.11662,-1.12901
291,9.700,-0.056,0.052,10.541,-1.38168,-0.06761,-0.94881
292,9.733,0.073,0.133,10.531,-1.20973,0.05015,-0.94947
293,9.767,-0.018,0.142,10.555,-1.09418,-0.11915,-1.09929
294,9.800,0.050,0.126,10.635,-1.33478,-0.12649,-0.97378
295,9.833,0.036,0.095,10.509,-1.19591,0.04150,-1.11489
296,9.867,0.011,0.120,10.580,-1.18467,1.43703,-1.13558
297,9.900,0.025,0.115,10.594,-1.34134,0.88063,-1.05231
298,9.933,-0.072,0.129,10.548,-1.32385,-0.08542,-1.01271
299,9.967,0.003,0.048,10.579,-1.22505,-0.10173,-1.02294
300,10.000,0.006,0.104,10.517,-1.22466,-0.04369,-0.99237
301,10.033,0.010,0.178,10.637,-1.24172,-0.05958,-0.96729
302,10.067,-0.025,0.113,10.631,-1.19842,-0.05955,-1.04474
303,10.100,0.012,0.221,10.591,-1.29773,0.02612,-0.93336
304,10.133,-0.016,0.127,10.537,-1.23191,-0.07451,-0.93054
305,10.167,0.110,0.113,10.617,-1.21414,0.41353,-1.03342
306,10.200,0.047,0.193,10.636,-1.14288,-1.06164,-1.07521
307,10.233,0.037,0.088,10.588,-1.40535,-0.09455,-1.05373
308,10.267,-0.110,0.139,10.665,-1.39043,-0.12717,-0.95308
309,10.300,-0.069,0.145,10.527,-1.23838,-0.08763,-1.06424
310,10.333,-0.002,0.274,10.582,-1.11271,0.02298,-0.92805
311,10.367,-0.020,0.077,10.489,-1.23300,-1.47523,-1.17519
312,10.400,0.067,0.119,10.558,-1.24972,0.16686,-0.82657
