frame_number,sync_timestamp,accel_x,accel_y,accel_z,gyro_x,gyro_y,gyro_z
0,0.000,-1.355,9.699,3.472,7.70992,-4.70992,0.57252
1,0.033,-0.848,9.338,3.354,13.07933,-0.73810,0.42232
2,0.067,-0.723,9.029,2.844,16.29147,3.08697,-4.37453
3,0.100,-0.530,8.770,3.471,13.31815,2.57442,-5.56060
4,0.133,-0.573,9.582,3.389,5.69834,5.47432,-6.41649
5,0.167,-0.738,9.756,2.629,1.85100,6.39930,-8.27799
6,0.200,-1.084,9.871,2.540,6.19141,7.59573,-2.21296
7,0.233,-0.837,10.131,3.043,7.25231,8.33781,2.80096
8,0.267,-0.531,10.236,3.547,12.96129,5.10298,3.61094
9,0.300,-0.222,9.803,3.576,17.71973,-0.16712,3.14568
10,0.333,-0.433,9.302,3.631,20.19553,-1.20706,2.97919
11,0.367,-0.554,9.328,3.762,24.53605,-0.43819,0.79367
12,0.400,-0.374,9.251,3.669,22.51065,0.51252,1.10669
13,0.433,-0.248,9.106,3.580,20.39661,-2.34424,1.81494
14,0.467,-0.236,9.059,3.352,15.74842,-4.11483,1.02105
15,0.500,-0.313,9.341,3.315,12.08024,-5.00061,-0.85979
16,0.533,-0.310,8.976,3.367,6.31485,-4.96793,-2.47867
17,0.567,-0.351,9.295,3.610,4.78441,-3.04127,-3.78648
18,0.600,-0.429,9.582,3.553,4.27143,-1.22612,-6.81292
19,0.633,-0.534,9.129,3.338,1.81837,1.67883,-5.19112
20,0.667,-0.717,9.250,3.518,1.42546,2.70280,-2.86789
21,0.700,-0.155,9.380,3.766,1.60272,1.63449,-3.16795
22,0.733,-0.069,9.407,3.727,-2.50058,-1.82286,-4.08253
23,0.767,-0.307,9.507,3.600,-2.34599,-3.36639,-5.09432
24,0.800,-0.362,9.417,3.615,-2.10922,-3.15470,-7.20759
25,0.833,-0.208,9.195,3.787,-1.49213,-1.46199,-8.47955
26,0.867,-0.056,9.030,3.732,-0.65661,-0.99527,-7.25380
27,0.900,0.282,9.018,3.857,0.22503,-3.53069,-4.23948
28,0.933,-0.103,8.650,3.557,-1.08503,-5.80834,-1.31309
29,0.967,0.133,8.578,3.653,-1.30068,-5.78700,-0.33566
30,1.000,0.152,8.858,3.706,-0.61134,-2.90000,0.97417
31,1.033,-0.322,9.534,3.698,-4.56177,2.09894,2.13480
32,1.067,0.058,10.594,3.376,-3.72364,7.81090,5.97994
33,1.100,0.474,11.750,3.967,1.42564,6.86503,5.44492
34,1.133,0.517,11.323,3.676,8.82563,8.17579,-5.79964
35,1.167,0.690,9.896,3.701,5.76237,9.15845,-4.97797
36,1.200,0.651,9.618,3.120,6.26515,9.14294,2.41050
37,1.233,0.891,8.861,3.232,6.58899,4.66835,11.57470
38,1.267,1.575,7.628,2.916,-2.67454,-4.31176,14.13186
39,1.300,2.003,7.436,1.733,-10.72766,-24.94873,13.88624
40,1.333,1.403,8.847,3.159,-16.37864,-32.13079,13.51819
41,1.367,-3.205,14.569,6.639,-3.88483,-12.63735,-6.28816
42,1.400,-3.567,9.083,3.072,14.44221,9.66037,-2.87453
43,1.433,-0.115,8.871,5.492,-6.25693,18.19612,7.95551
44,1.467,0.498,9.442,4.163,5.83026,0.73142,7.08597
45,1.500,0.011,7.016,4.581,0.82853,-4.35052,-1.83325
46,1.533,-1.615,6.789,4.400,-11.02289,-1.72875,-0.97105
47,1.567,-1.745,8.076,4.089,-12.22777,2.76842,0.96492
48,1.600,-0.991,9.373,4.346,-4.88335,3.44740,0.75111
49,1.633,-0.842,10.240,4.746,3.61600,-1.98899,-2.83109
50,1.667,-1.080,11.470,4.865,3.24044,-0.67520,-5.51902
51,1.700,-1.365,11.002,3.686,12.23456,-8.32414,1.08880
52,1.733,-1.600,9.630,3.991,17.02823,-12.43417,0.78907
53,1.767,-1.172,9.266,3.463,15.16802,-13.48574,2.31626
54,1.800,-1.712,8.174,2.808,12.82614,-12.80158,-2.47551
55,1.833,-2.412,7.097,2.385,2.67846,-2.64329,-7.28580
56,1.867,-2.561,6.016,1.990,-16.73471,16.77330,-12.90599
57,1.900,-2.138,6.082,1.437,-32.94302,36.71210,-23.13802
58,1.933,-1.819,7.984,3.017,-43.48984,57.43439,-31.03571
59,1.967,5.138,16.851,7.033,-34.26930,41.84730,0.49098
60,2.000,2.407,12.304,4.602,1.96481,-20.68764,-5.71820
61,2.033,-2.508,11.079,4.998,-16.46301,-19.09005,-16.51929
62,2.067,-1.186,8.868,3.741,0.74496,-1.51572,-6.34665
63,2.100,1.278,6.739,4.095,0.05947,-0.85136,4.89431
64,2.133,1.468,6.199,4.065,-1.67563,-7.70050,1.62701
65,2.167,1.326,6.756,3.960,-8.39559,-2.74269,-8.06120
66,2.200,0.253,10.001,4.886,-1.10214,-2.01140,0.51804
67,2.233,1.057,13.314,4.579,-4.24680,-5.01995,6.31815
68,2.267,0.194,10.548,4.001,20.26382,-11.23663,-5.32930
69,2.300,0.309,10.111,4.149,3.49107,1.17975,-10.44429
70,2.333,0.565,10.789,2.952,12.35413,9.35984,-2.36067
71,2.367,0.527,9.358,3.031,20.29299,11.74337,9.53743
72,2.400,1.191,8.156,2.976,19.02173,3.40663,19.55187
73,2.433,2.792,7.517,2.075,4.53036,-15.70027,18.22401
74,2.467,2.338,6.538,0.579,-4.35360,-43.96368,20.29300
75,2.500,2.415,6.288,1.201,-26.72713,-58.71851,22.97699
76,2.533,-7.817,19.470,10.578,-0.42451,-0.16469,-15.94789
77,2.567,-4.423,10.758,1.534,21.90341,18.32214,-1.75349
78,2.600,-0.988,9.419,9.458,14.66065,42.80536,10.75739
79,2.633,-1.196,8.896,4.304,0.56552,3.09196,23.89126
80,2.667,-0.630,6.819,4.558,5.62033,9.06769,15.83131
81,2.700,-0.969,5.223,4.693,-16.99229,13.14574,8.72464
82,2.733,-1.201,6.851,4.143,-17.42126,7.73754,3.68565
83,2.767,-0.886,8.635,4.349,-9.87561,9.61937,3.69638
84,2.800,-0.654,10.379,4.909,0.02159,0.92024,-2.18571
85,2.833,-0.952,11.353,4.321,-1.88245,-6.91556,-8.42701
86,2.867,-1.237,11.149,3.128,2.47338,-8.15949,-10.21095
87,2.900,-1.886,10.243,3.281,14.97554,-11.25510,-5.03546
88,2.933,-1.967,8.875,2.828,13.01031,-11.79102,-1.11080
89,2.967,-1.573,8.119,2.579,6.53879,-8.09321,-5.80454
90,3.000,-1.447,7.147,2.332,-7.43348,-5.07178,-14.04943
91,3.033,-1.845,6.178,2.039,-17.37834,8.18922,-19.48555
92,3.067,-2.110,6.529,0.978,-22.03414,25.11633,-20.06311
93,3.100,-2.485,6.756,1.504,-34.58870,46.81955,-30.80555
94,3.133,-0.718,15.555,7.146,-28.31681,50.13716,-2.81906
95,3.167,5.155,16.069,3.983,3.12435,-14.08437,31.52938
96,3.200,0.739,11.321,4.349,7.68491,-51.03733,-12.60138
97,3.233,-1.155,8.659,3.567,-15.34698,-17.83149,-27.38287
98,3.267,-1.298,7.551,3.729,23.18330,8.69627,-8.67896
99,3.300,1.686,6.320,4.844,15.12424,13.16992,-7.87756
100,3.333,1.529,7.010,4.970,15.56798,2.00311,-9.99689
101,3.367,0.453,8.385,4.530,7.17084,0.82607,3.01264
102,3.400,1.284,10.953,5.345,10.35986,-10.13096,10.16096
103,3.433,0.887,10.922,4.062,14.31739,-13.51938,-8.33398
104,3.467,-0.256,10.429,4.018,14.78607,-2.24415,-11.05427
105,3.500,-0.606,10.552,2.658,10.84669,13.58433,-7.70895
106,3.533,0.061,9.813,2.441,19.15573,28.57403,1.88071
107,3.567,1.461,8.733,2.523,16.38323,21.95141,8.57010
108,3.600,2.508,7.636,1.952,3.79461,5.59653,14.57735
109,3.633,3.078,6.766,1.652,-12.32950,-15.94390,19.84533
110,3.667,2.834,5.335,1.468,-33.55942,-44.69317,29.74891
111,3.700,3.005,3.894,0.361,-63.63682,-63.66755,38.58747
112,3.733,-3.380,17.174,11.802,-10.49638,24.96707,-2.92431
113,3.767,-5.624,14.096,0.840,-56.79162,-4.49162,7.68764
114,3.800,1.092,12.838,3.295,16.04938,54.68770,8.05405
115,3.833,-0.026,11.672,6.065,-15.00049,-10.58610,2.28663
116,3.867,-1.494,9.282,4.006,13.77376,-6.71633,4.58443
117,3.900,-2.162,6.754,4.355,-8.38672,4.27775,3.88471
118,3.933,-2.293,6.644,3.725,-30.78276,12.33243,8.38971
119,3.967,-0.521,7.942,3.572,-1.83507,13.44728,3.61246
120,4.000,-0.320,8.003,4.936,-1.35870,2.80214,-2.73609
121,4.033,-0.668,9.200,4.396,-6.17167,-3.99776,-2.94163
122,4.067,-1.093,10.514,3.215,-2.22005,-10.31698,-3.37057
123,4.100,-1.410,10.688,2.426,9.86585,-13.10442,-2.88825
124,4.133,-1.754,10.706,2.332,16.33660,-12.95593,-3.61511
125,4.167,-1.995,10.312,1.995,19.61725,-8.42870,-7.13433
126,4.200,-2.357,9.199,1.566,22.12446,-3.43329,-10.06090
127,4.233,-2.226,7.549,1.864,16.76127,1.85744,-14.24562
128,4.267,-1.913,6.027,1.838,-12.73447,12.88683,-16.83627
129,4.300,-1.634,5.685,0.694,-28.17072,27.10864,-25.82638
130,4.333,-3.393,8.649,3.962,-23.71949,65.50421,-22.66952
131,4.367,5.926,19.064,8.029,6.23517,-7.53947,34.06930
132,4.400,2.356,11.666,1.995,8.62827,-30.80089,-7.11257
133,4.433,-2.465,9.329,5.886,-13.34815,-23.71299,-25.37753
134,4.467,-0.972,8.918,2.910,-4.58216,-11.36818,-17.34089
135,4.500,-0.301,6.487,4.564,13.92270,23.51549,-4.91413
136,4.533,0.962,6.810,5.071,11.73287,9.67912,3.10006
137,4.567,0.172,7.965,4.695,-2.97993,5.71020,6.19435
138,4.600,0.823,10.461,4.731,1.99277,0.57591,4.71746
139,4.633,0.965,10.112,4.249,5.98562,-5.17437,-7.35605
140,4.667,-0.523,10.356,4.194,5.89690,1.15964,-8.92927
141,4.700,-0.463,11.844,2.961,4.84997,10.85414,-5.43165
142,4.733,0.064,11.100,1.818,24.31489,20.62740,3.71772
143,4.767,0.928,9.092,2.506,22.46325,12.87468,5.61856
144,4.800,1.942,8.042,1.843,10.66717,2.41394,6.40909
145,4.833,2.250,6.598,1.178,-1.09351,-21.92564,12.46014
146,4.867,2.614,5.658,-0.038,-16.11707,-47.00259,25.28965
147,4.900,2.285,5.943,-0.290,-38.98012,-63.51349,30.73316
148,4.933,-6.042,19.613,10.814,-19.79810,22.37906,-24.41752
149,4.967,-3.791,10.070,-0.112,-29.49146,1.44249,-7.74557
150,5.000,0.839,8.722,3.597,-1.94274,41.26740,5.47943
151,5.033,-0.163,12.231,5.877,-16.24771,-2.44854,2.02422
152,5.067,-1.445,9.492,4.368,13.44950,-7.68615,-0.46831
153,5.100,-1.869,7.695,6.030,-1.19412,6.19785,2.73442
154,5.133,-1.677,8.155,3.781,7.42872,0.60153,9.98449
155,5.167,-1.029,7.417,4.617,19.29173,0.12421,12.04645
156,5.200,-0.398,8.253,3.695,13.24483,-8.42923,12.17752
157,5.233,-0.364,9.484,2.540,10.49010,-14.32061,1.15576
158,5.267,-1.640,10.826,1.470,6.96626,-13.36827,-15.02421
159,5.300,-2.951,10.330,1.376,18.97428,-8.16965,-13.65994
160,5.333,-2.337,9.549,1.740,3.02535,1.41564,-6.96563
161,5.367,-1.176,8.516,0.984,-5.24283,5.58804,-7.66668
162,5.400,-1.917,7.495,1.612,-13.66505,11.21359,-15.16543
163,5.433,-1.911,6.396,2.300,-14.89347,26.93779,-17.29182
164,5.467,-2.538,5.509,3.820,-6.31388,32.37587,-9.93965
165,5.500,1.394,13.118,8.627,8.39592,49.12711,14.67773
166,5.533,2.138,16.321,4.154,-17.20627,-19.45292,-2.85295
167,5.567,-1.318,13.993,4.705,3.23582,-44.31857,-22.97077
168,5.600,-2.145,10.339,3.869,24.88786,0.68195,-13.34894
169,5.633,0.180,8.011,3.593,23.45713,24.66966,-11.11051
170,5.667,0.697,6.715,4.040,13.40174,12.38576,-4.94141
171,5.700,1.633,7.021,4.170,10.62904,9.16029,-9.71677
172,5.733,0.453,7.620,4.423,0.59214,7.82908,-8.33158
173,5.767,-0.444,9.337,4.154,9.10040,10.59798,0.67891
174,5.800,-0.145,10.910,4.383,9.26935,14.80334,2.44770
175,5.833,0.598,10.758,3.587,2.88778,17.96454,3.05530
176,5.867,1.370,10.069,3.277,14.44155,18.04225,3.10728
177,5.900,1.506,8.742,3.610,11.93308,12.49639,4.04316
178,5.933,1.616,8.043,2.769,7.15837,4.40741,12.39771
179,5.967,1.830,6.953,2.775,-0.36165,-7.00914,20.53334
180,6.000,2.316,6.080,2.577,-15.48090,-27.45866,25.52576
181,6.033,1.863,6.590,1.376,-30.68347,-37.62838,28.14077
182,6.067,0.315,9.481,2.784,-34.24690,-27.70424,23.95376
183,6.100,-5.779,18.938,8.751,-34.00546,-6.23925,-23.48374
184,6.133,-2.266,10.056,2.577,4.90806,27.24482,-0.48546
185,6.167,0.110,12.475,7.098,-9.75262,31.03420,-1.37658
186,6.200,-0.828,10.230,5.330,-7.81119,-0.31718,-3.87785
187,6.233,-1.574,6.439,5.088,3.89784,10.24041,1.49081
188,6.267,-1.945,5.350,4.347,-7.11662,4.40129,5.06479
189,6.300,-1.146,6.673,4.146,-8.35261,5.69282,10.23330
190,6.333,0.119,9.600,4.313,8.17582,-4.54406,2.32929
191,6.367,-0.640,11.109,4.147,17.40614,-13.90502,-16.52549
192,6.400,-1.361,10.027,4.085,20.15553,-22.07704,-8.34103
193,6.433,-1.998,9.676,3.926,19.43682,-22.07983,0.38007
194,6.467,-2.212,11.750,2.729,13.79035,-24.11699,-6.89167
195,6.500,-1.823,9.933,2.085,34.15752,-23.05716,-12.36586
196,6.533,-2.087,7.558,2.925,20.32304,-16.29921,-14.25262
197,6.567,-2.016,6.245,2.594,-3.37637,-10.85884,-13.05330
198,6.600,-2.634,4.936,2.054,-24.02644,3.24367,-14.94224
199,6.633,-2.534,4.554,1.753,-33.62666,18.71048,-19.50226
200,6.667,-2.854,7.930,3.972,-38.00838,59.22357,-29.18345
201,6.700,7.596,19.613,9.808,-17.51003,-2.67362,11.53571
202,6.733,2.082,13.183,4.805,14.34136,-31.26199,-13.05593
203,6.767,-3.453,11.548,5.476,-14.98088,-18.18282,-9.48047
204,6.800,-0.028,9.370,3.433,19.05738,17.89167,-2.30266
205,6.833,1.224,6.789,4.209,12.40841,11.66793,-0.62315
206,6.867,2.132,5.852,4.726,-2.33725,2.30627,-11.04778
207,6.900,0.878,6.892,4.128,-9.27592,3.27017,-7.62408
208,6.933,0.332,7.990,4.215,-8.04778,2.64871,-1.99325
209,6.967,0.427,8.897,4.366,2.08364,1.70165,1.08612
210,7.000,-0.155,10.875,4.320,-2.80502,2.91138,0.54052
211,7.033,0.288,12.248,2.850,1.02591,5.81519,6.11121
212,7.067,1.158,10.935,2.736,16.36155,8.12101,9.95293
213,7.100,1.052,9.506,2.739,15.51451,7.86588,12.06664
214,7.133,0.330,8.062,2.562,8.21119,1.90823,15.98517
215,7.167,1.282,6.309,1.976,-5.63998,-9.68941,23.84625
216,7.200,2.096,5.855,1.560,-17.53638,-28.36846,25.05944
217,7.233,2.718,6.714,1.175,-39.15806,-42.48615,20.91809
218,7.267,-1.316,13.832,8.289,-36.86161,26.32612,-6.16208
219,7.300,-5.908,15.656,1.786,-20.57842,-18.57832,-9.21757
220,7.333,-0.643,12.333,3.198,26.74103,36.41396,9.09597
221,7.367,0.622,12.523,5.951,-0.87871,4.34390,-4.59212
222,7.400,-0.441,8.639,4.805,23.37469,-18.00838,-6.31776
223,7.433,-1.542,6.275,5.228,-3.05909,-5.33067,-6.21868
224,7.467,-2.700,6.823,3.907,-18.20225,6.58385,1.54989
225,7.500,-2.290,6.790,4.133,-8.86293,11.58659,3.88157
226,7.533,-0.522,7.988,3.936,-5.69198,5.26222,6.39813
227,7.567,0.107,10.032,3.596,4.52138,1.70634,-1.57128
228,7.600,-1.001,11.751,3.639,7.40170,-10.87718,-12.26743
229,7.633,-1.681,10.714,3.547,16.42364,-15.52429,-9.96966
230,7.667,-1.897,9.945,3.761,14.28241,-14.98152,0.14638
231,7.700,-1.768,9.745,2.850,15.75174,-16.68669,-0.77796
232,7.733,-1.517,8.631,2.543,15.32937,-15.02782,-8.86695
233,7.767,-1.542,6.708,2.563,-1.55017,-12.19997,-12.14062
234,7.800,-2.591,5.676,2.156,-14.04649,3.31076,-10.89416
235,7.833,-2.130,7.016,0.763,-34.57881,19.81846,-16.61490
236,7.867,-1.815,7.809,2.360,-34.82146,52.54115,-31.87805
237,7.900,4.969,18.713,8.029,2.73568,9.16027,10.29767
238,7.933,0.790,11.586,4.111,11.53073,-27.56774,-16.04435
239,7.967,-2.941,11.937,5.615,-12.63391,-11.78084,-21.56813
240,8.000,-1.140,9.624,4.086,12.69596,13.89124,-9.07839
241,8.033,1.054,6.962,4.066,14.35412,15.18224,-4.91407
242,8.067,1.363,5.058,4.878,4.18930,5.88188,-0.40626
243,8.100,1.763,6.123,4.551,-3.42559,5.25150,-4.18628
244,8.133,1.078,8.970,4.786,-5.43697,-0.25534,-9.35055
245,8.167,0.209,10.780,3.486,-7.38028,-1.94379,-2.53073
246,8.200,-0.048,11.588,3.598,14.81628,1.07399,2.80779
247,8.233,0.550,11.043,3.464,9.01641,7.93135,4.94412
248,8.267,1.092,10.734,2.765,14.48759,10.42145,2.43485
249,8.300,0.976,9.889,2.149,22.13862,7.24477,7.16909
250,8.333,1.063,8.610,2.420,21.20316,4.03168,15.08272
251,8.367,1.497,7.059,1.881,11.48198,-8.09192,21.43349
252,8.400,2.294,6.339,0.705,-1.81590,-30.89265,24.21567
253,8.433,2.768,6.967,1.154,-33.27867,-42.31647,21.43789
254,8.467,-3.905,17.691,9.482,-18.44497,18.27410,-18.09588
255,8.500,-5.190,11.198,2.156,3.19331,-2.37238,-1.77529
256,8.533,-0.685,10.547,9.007,5.04750,27.85815,6.18364
257,8.567,-0.083,9.912,5.156,4.71780,-14.52980,6.39017
258,8.600,-0.472,6.941,4.824,16.25616,-10.10652,5.12639
259,8.633,-1.340,5.855,5.619,-11.03734,2.42598,-1.07026
260,8.667,-2.215,7.141,4.079,-11.72091,3.38487,4.80695
261,8.700,-1.452,8.451,4.202,6.93465,-1.30071,8.65761
262,8.733,-0.400,10.337,3.833,10.84212,-2.68152,3.78569
263,8.767,-0.577,11.807,3.867,12.26460,-11.64049,-10.17184
264,8.800,-2.104,10.625,3.084,16.70808,-14.85079,-11.76052
265,8.833,-2.715,9.435,2.573,19.72685,-8.14602,-2.87520
266,8.867,-1.655,8.724,2.161,14.81005,-4.32596,-6.31676
267,8.900,-1.530,7.273,2.170,5.09257,-3.36754,-15.63145
268,8.933,-1.658,6.099,2.109,-13.30779,7.93840,-24.65920
269,8.967,-2.058,6.037,1.824,-32.55129,15.48401,-19.82700
270,9.000,-2.201,5.951,1.538,-45.82713,31.88380,-24.04115
271,9.033,-0.942,12.463,7.536,-34.79357,45.11243,-0.23597
272,9.067,4.251,16.825,7.668,-9.88167,-18.61509,18.97848
273,9.100,-1.907,11.598,7.210,-23.63576,-19.30598,-24.13434
274,9.133,-1.877,10.889,3.236,-12.60005,1.18365,-6.38680
275,9.167,0.453,8.457,3.535,26.94694,18.76182,12.35224
276,9.200,1.608,6.943,6.191,11.89526,5.69092,0.21588
277,9.233,2.085,6.629,3.906,1.21860,3.27420,-14.86482
278,9.267,0.417,6.342,3.440,-17.36659,3.27436,-11.15035
279,9.300,-1.054,8.719,3.356,-17.35667,12.96889,-0.38478
280,9.333,-0.179,12.778,3.819,2.17059,17.91457,9.34188
281,9.367,1.245,12.644,2.508,1.43896,6.71721,10.03878
282,9.400,1.517,10.649,2.648,10.81123,6.48391,4.25275
283,9.433,0.687,8.808,2.608,7.21106,3.41486,6.22109
284,9.467,0.866,7.763,2.563,13.01704,-0.22763,11.86703
285,9.500,0.784,7.532,2.477,6.08548,-6.32451,14.48752
286,9.533,1.196,6.878,2.302,-11.34844,-11.49660,16.78098
287,9.567,1.698,7.802,2.857,-30.75407,-25.89248,18.14783
288,9.600,2.028,8.641,2.734,-32.03524,-37.70137,19.09685
289,9.633,-0.642,13.573,6.175,11.72070,-21.19762,10.71748
290,9.667,-6.137,15.333,5.528,-9.06603,-23.34740,-16.42565
291,9.700,-2.245,9.266,4.491,36.83331,21.08798,8.86881
292,9.733,-1.390,11.071,6.544,6.17072,4.83117,8.11111
293,9.767,-1.833,9.093,4.029,25.90889,-3.05561,8.17467
294,9.800,-1.406,7.296,4.966,6.06890,1.86662,7.84521
295,9.833,-0.996,7.229,4.024,-7.24919,4.26071,-0.44846
296,9.867,-1.291,6.568,4.540,4.55876,-1.40306,-3.85783
297,9.900,-0.713,6.998,4.704,-3.79585,-6.49050,-2.60915
298,9.933,-0.866,9.581,3.466,1.22632,-12.22998,-6.04590
299,9.967,-1.280,11.313,2.690,9.24848,-8.16237,-15.61662
300,10.000,-2.282,10.673,2.704,16.96052,-3.33832,-17.33338
301,10.033,-2.421,9.604,2.671,13.76625,-2.44384,-10.80747
302,10.067,-1.397,8.965,1.828,6.68413,-1.49763,-10.41584
303,10.100,-1.559,7.855,1.906,0.73951,-5.45386,-15.10213
304,10.133,-0.884,6.574,2.056,-14.76851,-3.91282,-22.83307
305,10.167,-1.284,5.852,1.792,-39.54958,5.01040,-25.10249
306,10.200,-2.926,6.684,2.378,-39.59609,22.95128,-24.73604
307,10.233,0.274,14.431,8.135,3.01847,13.66976,9.29106
308,10.267,1.249,13.834,4.388,-6.56666,-2.92349,-3.49340
309,10.300,-3.230,12.447,6.426,-19.00253,-9.92148,-17.21187
310,10.333,-0.693,12.223,3.982,6.14238,7.80083,-4.43994
311,10.367,1.502,9.666,4.314,24.56864,0.92833,2.70356
312,10.400,1.345,7.972,5.147,6.16781,-5.77595,-8.14848
313,10.433,0.539,6.970,4.201,-1.90554,-4.68123,-10.72756
314,10.467,0.191,5.524,4.133,-6.96828,5.64278,-8.28072
315,10.500,-0.535,7.506,3.941,-0.44397,11.53892,-0.73040
316,10.533,-0.652,10.431,4.017,10.24416,16.28067,8.90635
317,10.567,1.398,12.077,3.536,6.39430,11.77952,11.59886
318,10.600,2.326,10.965,3.382,9.57611,3.45253,1.69487
319,10.633,0.749,9.928,2.950,10.20410,4.17438,3.23040
320,10.667,0.777,8.745,2.957,20.73705,3.84006,10.85725
321,10.700,0.830,7.312,2.756,8.35030,-4.93832,16.34972
322,10.733,2.033,5.993,1.730,-15.74860,-18.78958,13.64726
323,10.767,1.932,5.648,1.629,-39.15000,-31.42911,17.25734
324,10.800,-1.510,12.277,8.734,-20.04361,26.54292,6.17339
325,10.833,-3.950,16.689,4.669,-29.98589,-31.27405,7.35851
326,10.867,-1.754,12.897,4.155,13.44338,22.77381,14.64403
327,10.900,-0.675,11.770,5.379,13.49171,-5.12149,8.76351
328,10.933,-1.454,7.185,4.306,16.41994,-1.57223,5.46253
329,10.967,-1.187,5.152,4.618,6.63898,10.01871,-1.17912
330,11.000,-2.250,5.671,3.872,-12.38034,9.36194,8.89514
331,11.033,-1.718,6.945,3.864,-2.54761,11.65666,5.57002
332,11.067,-1.050,8.603,4.187,2.06485,9.44683,3.76682
333,11.100,-0.423,10.159,4.094,6.90395,3.48527,-5.17718
334,11.133,-1.268,11.338,3.600,1.63210,2.71166,-12.25162
335,11.167,-2.505,11.044,3.041,15.91251,3.08200,-6.71824
336,11.200,-2.006,9.630,3.052,13.78144,-1.13580,-0.04098
337,11.233,-1.504,8.458,2.312,9.70891,-3.45904,-5.02798
338,11.267,-1.207,6.375,2.273,-5.44044,-0.52113,-16.95496
339,11.300,-1.550,4.991,2.057,-23.31207,6.94929,-19.80400
340,11.333,-2.093,5.296,0.790,-42.26102,13.46385,-21.56320
341,11.367,-2.705,7.675,3.495,-51.26734,55.80556,-30.06003
342,11.400,7.156,19.613,11.032,-2.15162,-27.57015,38.65429
343,11.433,2.211,11.586,3.060,15.23362,-26.74261,-19.99509
344,11.467,-3.839,10.639,5.830,-20.98349,-8.76584,-16.18090
345,11.500,-1.600,9.223,3.018,16.19412,14.32743,2.50708
346,11.533,1.149,6.634,5.231,27.20914,11.56893,5.95362
347,11.567,1.919,6.587,4.969,4.53729,2.68809,-5.74113
348,11.600,0.876,7.854,4.122,-3.38499,-2.53697,-8.01138
349,11.633,0.638,7.821,3.788,-1.34426,0.06678,-9.96231
350,11.667,-0.179,8.252,3.726,3.79605,4.83899,-6.83362
351,11.700,0.168,11.537,3.976,0.29202,7.51785,3.86874
352,11.733,0.727,12.293,2.514,7.13675,8.49907,8.73733
353,11.767,1.272,10.573,3.297,15.58037,9.01168,4.45565
354,11.800,0.882,9.222,3.435,5.07701,4.15645,3.78227
355,11.833,1.012,8.604,2.732,5.27958,-1.35623,4.35692
356,11.867,1.442,7.590,2.231,-0.87819,-10.74097,9.38404
357,11.900,2.294,6.625,1.641,-12.60259,-19.47898,8.09237
358,11.933,2.044,5.947,1.573,-29.36278,-30.69308,9.67586
359,11.967,-0.791,10.192,7.670,-34.28167,24.96592,-5.36563
360,12.000,-5.971,16.329,5.804,-32.24774,-14.92212,-17.87675
361,12.033,-2.175,11.043,3.700,-12.16340,25.99081,23.30076
362,12.067,0.464,12.997,5.342,-2.15678,3.42464,17.44602
363,12.100,-0.372,8.943,3.907,17.17927,-16.20447,9.05090
364,12.133,-1.425,6.278,4.572,7.90907,2.26045,-1.31533
365,12.167,-1.792,6.848,4.026,-6.38608,-0.50607,0.55139
366,12.200,-0.628,7.628,4.202,5.66286,-2.81262,1.30083
367,12.233,-1.030,7.652,4.605,8.58097,-11.70868,6.83827
368,12.267,-1.040,8.751,3.909,3.82287,-10.58094,4.89314
369,12.300,-1.279,10.257,3.093,5.17642,-8.70836,-7.11640
370,12.333,-2.045,11.056,3.096,15.78578,-5.44095,-11.81168
371,12.367,-2.271,10.204,3.400,20.33618,-1.55758,-7.90499
372,12.400,-2.057,9.689,3.067,14.36164,0.62859,-2.13683
373,12.433,-1.600,9.170,2.608,15.78752,1.41531,-4.11470
374,12.467,-1.166,7.841,2.863,10.42144,3.58463,-11.37997
375,12.500,-1.242,6.892,2.134,0.81347,1.25478,-14.83901
376,12.533,-1.715,6.395,1.732,-18.49744,9.68759,-15.14197
377,12.567,-2.086,6.813,1.712,-30.78856,22.93590,-18.92730
378,12.600,-1.885,11.288,6.485,-19.65224,47.56572,-15.79331
379,12.633,4.128,18.150,6.481,-14.60798,-16.16561,15.58089
380,12.667,-1.563,12.044,4.642,-11.25564,-18.37078,-17.14137
381,12.700,-1.642,11.047,4.254,-5.45431,4.68003,-10.00666
382,12.733,1.299,8.070,3.929,15.71075,25.36802,0.23248
383,12.767,1.740,6.574,5.990,19.62632,5.86447,2.75429
384,12.800,1.422,6.603,4.640,-4.56839,2.34636,-11.47121
385,12.833,0.819,6.701,4.587,0.80000,0.89341,-7.66153
386,12.867,1.193,7.079,4.906,2.24888,1.63142,-9.44357
387,12.900,0.147,8.845,4.583,2.71466,-1.10771,-6.12428
388,12.933,-0.424,11.338,3.697,-8.42547,0.02068,2.22855
389,12.967,0.485,11.709,2.455,3.68582,7.58584,9.06562
390,13.000,1.748,10.978,2.887,12.53855,7.32249,14.99439
391,13.033,1.011,9.239,2.779,4.95006,2.73001,10.58596
392,13.067,0.878,7.882,2.212,-1.24592,0.27619,10.73885
393,13.100,1.434,7.010,1.762,-4.57408,-7.39205,18.39499
394,13.133,2.591,6.192,1.434,-14.78648,-25.81730,17.97811
395,13.167,2.116,6.052,2.106,-32.08132,-38.14869,14.90336
396,13.200,-5.454,17.981,13.997,-19.98192,19.53095,-28.24445
397,13.233,-4.006,11.120,4.110,-10.33297,3.77768,-17.00446
398,13.267,-0.024,12.066,7.114,-13.44890,39.07202,2.51668
399,13.300,-1.161,10.651,5.398,10.75179,7.62368,7.94695
400,13.333,-0.992,6.912,5.691,17.28376,-3.79404,14.75897
401,13.367,-1.238,5.668,4.333,-2.60182,0.95401,8.60692
402,13.400,-1.684,6.767,2.668,-1.90430,2.51145,10.31088
403,13.433,-0.292,8.070,3.051,14.21104,0.84948,4.55711
404,13.467,0.214,11.323,4.760,17.41090,-2.73988,-4.36916
405,13.500,-0.880,12.223,3.710,18.37606,-20.16731,-18.21024
406,13.533,-2.028,10.574,3.232,23.69719,-23.23786,-8.36267
407,13.567,-1.877,9.654,3.424,17.55084,-21.12340,2.90618
408,13.600,-1.867,8.697,2.669,16.73864,-20.39112,0.93480
409,13.633,-1.451,7.522,2.608,20.38020,-18.58739,-9.03762
410,13.667,-1.717,6.376,2.400,8.02919,-6.64622,-16.34612
411,13.700,-2.183,6.369,1.656,-4.34084,2.92352,-17.09070
412,13.733,-3.344,6.228,0.824,-24.87388,11.33962,-17.79685
413,13.767,-2.925,7.766,5.612,-49.80107,61.76003,-18.13026
414,13.800,7.923,19.613,10.114,-6.66489,-23.29579,40.49852
415,13.833,0.582,11.030,4.335,12.78673,-24.51803,-14.81673
416,13.867,-2.327,10.244,5.670,-41.87401,-4.24852,-21.06986
417,13.900,-0.908,9.616,2.543,3.98550,21.67552,-3.46934
418,13.933,0.968,7.688,5.938,16.47616,14.76985,2.06683
419,13.967,1.695,6.303,4.847,-10.20387,14.11595,-9.46640
420,14.000,1.669,6.347,4.833,-6.11854,9.35076,-10.00463
421,14.033,0.582,7.163,4.061,-5.83041,3.65138,-5.57232
422,14.067,0.321,9.968,4.389,3.47896,-0.09691,2.13409
423,14.100,1.111,11.727,3.455,10.14345,-5.60155,7.93163
424,14.133,1.207,11.549,3.040,17.00182,-8.70438,2.54172
425,14.167,0.799,10.546,2.714,13.25133,-7.41414,-0.09132
426,14.200,0.630,9.308,2.194,6.56986,-3.00173,2.07639
427,14.233,0.644,7.745,1.793,-1.79456,-5.56399,6.72879
428,14.267,1.210,6.167,1.257,-18.04401,-13.89774,12.51337
429,14.300,2.084,5.793,1.378,-26.14958,-29.90441,18.15236
430,14.333,0.502,10.232,6.298,-23.71372,-7.02321,6.48055
431,14.367,-4.620,15.086,6.776,-44.00277,-0.89461,-29.66600
432,14.400,-3.307,11.185,3.443,-17.97948,32.02306,10.30512
433,14.433,0.141,13.284,6.381,0.21246,13.15522,14.96428
434,14.467,-1.045,9.056,4.555,5.12648,-7.63734,11.63708
435,14.500,-1.789,6.429,4.737,0.19764,10.67691,8.48275
436,14.533,-0.927,6.521,4.288,-10.73168,10.06141,7.68520
437,14.567,-0.248,6.991,3.869,-0.30927,5.22264,5.87989
438,14.600,-0.599,8.349,4.004,4.60708,-3.63003,2.89971
439,14.633,-0.612,11.005,4.102,10.42241,-8.61755,-7.64710
440,14.667,-1.226,11.871,3.300,5.44517,-10.36946,-17.90856
441,14.700,-2.345,9.703,3.546,19.16929,-13.20420,-7.38550
442,14.733,-1.995,9.206,3.171,6.96093,-11.20737,1.18520
443,14.767,-1.279,9.001,2.231,6.10417,-12.07981,1.20636
444,14.800,-0.616,8.094,2.277,8.98835,-12.92108,-9.00915
445,14.833,-1.118,7.248,1.950,0.93321,-10.61469,-21.59973
446,14.867,-2.148,6.896,1.534,-10.19977,-4.59053,-20.52838
447,14.900,-2.212,7.269,1.411,-30.00216,1.94620,-23.88313
448,14.933,-1.402,8.476,3.181,-44.20352,27.47098,-19.80270
449,14.967,2.439,15.454,7.241,-19.13948,-7.67361,12.20590
450,15.000,-0.164,12.244,4.368,-12.85977,-11.48018,-7.56369
451,15.033,-1.393,12.203,5.493,-7.70952,-2.11210,-2.14487
452,15.067,0.376,9.636,4.314,11.30482,7.39800,5.04759
453,15.100,1.184,7.547,4.644,8.58524,6.20179,-0.09500
454,15.133,1.176,7.230,4.148,5.66935,11.31981,-11.28062
455,15.167,0.221,8.148,3.863,6.07188,16.30139,-2.14525
456,15.200,0.952,9.690,3.272,11.88696,16.02818,2.81247
457,15.233,0.851,11.072,3.469,9.42987,11.79714,4.67331
458,15.267,1.325,11.627,3.167,21.90704,6.91058,9.20065
459,15.300,1.229,10.185,2.796,20.05690,8.54877,2.22921
460,15.333,1.352,8.734,2.225,15.97105,12.53654,2.09132
461,15.367,0.801,7.758,2.491,17.13624,9.35761,8.08195
462,15.400,0.889,6.440,1.764,11.74668,-6.21273,16.75896
463,15.433,2.409,6.147,0.994,1.02336,-16.24303,18.09004
464,15.467,2.651,8.737,2.535,-31.06586,-18.54812,11.42254
465,15.500,-4.377,15.363,13.147,-24.46444,5.09289,-26.08187
466,15.533,-4.013,9.760,4.582,20.76167,4.22859,-13.72876
467,15.567,0.060,12.427,7.635,-4.62029,21.40202,-0.49500
468,15.600,-0.784,10.263,4.271,19.92728,-4.48590,6.01195
469,15.633,-1.739,6.721,5.037,14.75789,1.18798,10.63804
470,15.667,-1.369,6.771,3.871,-7.36782,1.66438,12.32430
471,15.700,-1.093,7.226,3.353,-3.86820,0.79621,8.90504
472,15.733,-0.731,7.551,4.429,0.50156,-1.27901,3.30842
473,15.767,-0.266,8.959,4.303,2.25885,-5.59683,-1.69314
474,15.800,-1.150,10.456,4.713,1.75910,-9.21441,-8.26527
475,15.833,-2.214,10.717,3.877,0.59200,-10.59386,-8.15134
476,15.867,-1.893,9.551,3.919,6.96579,-13.08243,-1.65423
477,15.900,-1.533,8.582,3.476,2.64594,-13.65348,-0.15979
478,15.933,-1.513,8.162,3.030,-0.39380,-10.01183,-4.20522
479,15.967,-1.525,7.535,2.721,-3.53022,-8.87157,-6.16042
480,16.000,-1.593,6.457,1.939,-10.53894,-5.07044,-7.86362
481,16.033,-2.263,6.040,1.310,-26.12820,6.32690,-13.81317
482,16.067,-2.493,6.932,1.583,-44.05205,37.47330,-24.26749
483,16.100,0.806,15.876,8.776,-14.24176,54.07163,6.61093
484,16.133,-0.920,14.657,5.581,-15.43063,-8.06915,12.15920
485,16.167,-1.737,12.464,5.598,-18.00633,7.42558,-10.26599
486,16.200,1.308,10.644,5.203,12.95166,19.69818,2.10178
487,16.233,1.960,7.734,4.233,14.42295,-0.59705,2.47786
488,16.267,2.528,5.865,4.434,2.22824,-10.96481,-14.10527
489,16.300,1.257,6.362,3.508,-9.33653,-12.29089,-23.78666
490,16.333,-0.167,8.843,3.516,-9.86428,-2.97069,-11.72677
491,16.367,0.438,10.968,3.681,7.54597,4.27546,4.42853
492,16.400,-0.007,11.430,4.695,6.45328,-7.39250,5.73433
493,16.433,0.529,11.723,3.854,7.53098,-0.97978,2.65827
494,16.467,1.135,10.442,3.571,13.15869,5.29758,-1.46135
495,16.500,1.003,8.723,3.153,13.74192,7.94490,0.20967
496,16.533,0.864,7.365,3.428,16.02183,4.85196,6.39161
497,16.567,0.893,6.687,2.693,7.89909,-0.89322,13.21621
498,16.600,1.960,5.821,1.939,-7.47654,-18.97446,16.10548
499,16.633,3.157,6.251,0.535,-37.46401,-37.85188,13.08768
500,16.667,2.173,7.658,1.693,-51.14505,-41.00179,18.57540
501,16.700,-7.166,19.010,11.538,-33.62153,0.81331,-39.26383
502,16.733,-4.641,9.414,2.631,-16.66858,29.36921,-9.83029
503,16.767,0.477,10.824,6.767,-20.61552,34.30202,10.83693
504,16.800,0.390,11.291,4.878,-16.35376,11.15056,8.13536
505,16.833,-2.189,8.149,4.891,0.23957,10.54186,6.67504
506,16.867,-2.723,7.124,4.337,-18.13781,18.88448,9.98962
507,16.900,-0.787,7.663,3.459,-9.86511,26.16929,11.99700
508,16.933,0.443,8.589,4.290,-0.86826,20.26275,8.77333
509,16.967,-1.026,9.539,4.664,-0.45118,8.78816,8.86676
510,17.000,-1.717,9.318,3.712,-6.78375,10.22645,7.80251
511,17.033,-1.318,10.141,3.699,-6.78952,11.76549,5.32314
512,17.067,-1.425,10.081,3.651,-0.00091,9.10001,2.86382
513,17.100,-1.562,9.124,3.642,-2.36940,9.09606,2.60172
514,17.133,-1.651,8.870,3.403,-3.78203,12.22576,-0.18562
515,17.167,-2.127,8.330,3.072,-10.02403,15.91608,-1.64813
516,17.200,-2.286,7.515,2.737,-21.07156,21.65226,-3.86071
517,17.233,-2.607,7.512,2.406,-27.88990,28.70888,-5.46044
518,17.267,-2.452,8.206,1.711,-41.74786,35.55625,-4.60412
519,17.300,-0.460,9.810,2.279,-34.30157,45.78918,-2.65400
520,17.333,-0.331,12.453,2.819,-27.27557,40.43189,4.14706
521,17.367,1.688,12.024,2.576,-28.50605,19.40414,12.68555
