frame_number,sync_timestamp,accel_x,accel_y,accel_z,gyro_x,gyro_y,gyro_z
0,0.000,1.161,9.926,-0.165,-0.83969,0.02290,-1.73282
1,0.033,1.013,9.970,-0.288,0.23516,-0.71993,-0.67275
2,0.067,1.108,9.952,-0.190,1.12962,-0.69052,-1.81227
3,0.100,0.895,9.702,0.000,0.89168,0.51218,-0.62603
4,0.133,1.184,9.636,0.058,-2.02941,2.70973,-1.53205
5,0.167,1.192,9.803,-0.201,-2.10652,0.66114,-0.85136
6,0.200,1.151,9.854,-0.221,-0.92012,-1.51939,-0.65512
7,0.233,0.983,9.878,-0.157,-0.13399,-2.61731,-1.42560
8,0.267,0.699,9.896,-0.132,-0.48368,0.29966,-0.60371
9,0.300,0.948,9.751,-0.164,-2.25760,2.58740,0.39850
10,0.333,1.132,9.692,-0.030,-2.77019,2.82948,0.17570
11,0.367,1.093,9.709,-0.182,-5.49533,-1.00515,0.04360
12,0.400,1.041,9.801,-0.311,-7.88524,-1.69918,-0.36797
13,0.433,1.013,9.723,-0.461,-8.84348,-2.04808,-0.46468
14,0.467,1.216,9.926,-0.533,-6.15612,-4.59554,-0.75579
15,0.500,1.094,9.913,-0.526,-3.45924,-7.69321,-0.52420
16,0.533,1.021,9.826,-0.535,-2.18170,-9.23510,0.23054
17,0.567,0.996,9.926,-0.490,-2.71758,-8.35097,-1.00535
18,0.600,1.112,9.845,-0.576,-1.91291,-6.86661,-2.41818
19,0.633,1.291,10.029,-0.473,0.78136,-9.66205,-3.31659
20,0.667,1.317,9.974,-0.523,2.22530,-12.51386,-4.51773
21,0.700,1.370,9.806,-0.488,2.06917,-14.27121,-5.63893
22,0.733,1.425,9.745,-0.526,1.99574,-14.67415,-5.61157
23,0.767,1.298,9.864,-0.536,0.09043,-19.16848,-3.07564
24,0.800,1.200,10.168,-0.476,1.87661,-21.47885,-2.76624
25,0.833,1.456,9.973,-0.726,5.98414,-24.87385,-2.70570
26,0.867,1.259,9.768,-0.322,4.77953,-25.83314,-3.33579
27,0.900,1.052,9.759,-0.162,2.30857,-21.40977,-3.55431
28,0.933,1.396,9.801,-0.027,4.83983,-20.27345,-2.89808
29,0.967,1.365,9.718,0.224,5.87655,-21.76938,-1.05865
30,1.000,0.922,9.411,0.201,5.91167,-17.24861,-1.51275
31,1.033,0.803,9.652,-0.037,5.53531,-10.63033,-3.45942
32,1.067,1.189,10.123,0.133,4.93909,-8.37078,-2.64562
33,1.100,0.972,10.387,0.417,10.61010,-5.23413,-3.80133
34,1.133,0.933,10.137,0.541,14.62480,1.65791,-4.29110
35,1.167,0.953,10.147,0.599,16.45253,10.36025,-3.42721
36,1.200,0.762,10.054,-0.117,13.86571,9.66284,5.69220
37,1.233,2.026,9.245,-0.247,20.95448,7.88645,14.58262
38,1.267,3.879,9.609,-0.662,28.05248,1.52165,13.22898
39,1.300,2.835,11.453,0.252,25.45201,-1.56780,7.90237
40,1.333,1.548,11.248,0.827,35.64270,6.43783,2.27885
41,1.367,2.234,9.361,-0.014,34.87940,12.05226,4.86391
42,1.400,3.802,8.320,-1.154,32.02979,6.35824,10.96097
43,1.433,3.788,7.328,-0.130,21.44741,-14.28283,19.07105
44,1.467,3.420,7.502,0.388,20.24581,-29.62248,25.72300
45,1.500,2.612,6.669,-0.470,12.65081,-40.90551,35.22211
46,1.533,2.734,7.044,0.117,-16.06682,-57.57187,38.49211
47,1.567,-0.479,16.319,2.672,-21.41661,-57.54618,24.16161
48,1.600,-5.496,16.477,1.929,21.82530,-16.33649,-2.34528
49,1.633,-2.658,8.725,2.030,-2.86512,7.66720,28.50672
50,1.667,1.597,10.383,1.915,-25.25235,11.69724,16.90237
51,1.700,0.862,11.896,2.379,8.62958,-9.16869,16.42018
52,1.733,-1.044,9.189,2.446,10.05873,-17.06293,22.27393
53,1.767,-1.626,9.017,1.863,5.50283,-9.87999,22.09063
54,1.800,-1.844,8.626,1.794,0.22346,-0.57021,24.31598
55,1.833,-2.013,8.884,2.208,-6.63553,8.33527,24.57617
56,1.867,-1.948,8.717,2.600,-15.45572,12.37250,26.07344
57,1.900,-1.351,8.737,2.471,-24.34242,8.53897,24.32159
58,1.933,-0.590,9.642,2.500,-23.18560,-0.10753,19.99913
59,1.967,-1.118,8.971,2.506,-21.47161,-8.19965,16.74140
60,2.000,-1.487,9.520,1.880,-28.28884,-12.88374,10.53528
61,2.033,-1.825,9.776,1.241,-16.19689,-16.51649,9.05925
62,2.067,-2.172,9.436,1.503,-9.27453,-13.84106,6.88604
63,2.100,-2.208,8.906,1.341,-16.93077,-11.27145,7.64537
64,2.133,-1.431,8.973,1.475,-18.68175,-13.11311,3.01589
65,2.167,-1.610,9.168,1.507,-15.29001,-15.34359,-0.23419
66,2.200,-1.567,8.745,1.228,-17.53363,-15.24974,-4.43634
67,2.233,-1.879,9.335,0.731,-17.35359,-10.38641,-13.38693
68,2.267,-2.202,9.824,0.399,-15.06467,-10.25108,-13.16895
69,2.300,-1.916,9.750,0.414,-15.09690,-7.18135,-14.46457
70,2.333,-1.701,9.927,0.071,-10.87388,-5.94668,-14.34606
71,2.367,-1.706,9.807,0.051,-6.09238,-7.06752,-12.88484
72,2.400,-1.339,9.276,-0.000,-11.41382,-5.08533,-15.17843
73,2.433,-1.014,9.830,-0.049,-11.36148,-5.42068,-17.77717
74,2.467,-1.116,9.738,-0.182,-4.12984,-6.71633,-18.62835
75,2.500,-0.933,9.724,0.017,-5.41607,-7.34304,-21.54011
76,2.533,-0.832,10.236,-0.319,-1.09414,-4.57217,-23.77369
77,2.567,-0.633,9.843,0.020,2.39804,-0.27462,-28.93134
78,2.600,-0.275,9.784,0.387,-1.64387,5.03117,-34.79276
79,2.633,-0.274,10.689,-0.030,2.50221,4.17462,-35.91998
80,2.667,-0.367,10.954,-0.791,11.15733,11.22971,-35.65545
81,2.700,0.016,10.175,-0.633,14.91927,10.26717,-36.14472
82,2.733,0.273,11.326,-0.341,23.61893,9.75417,-31.64463
83,2.767,0.338,9.771,-0.766,17.22511,10.94943,-32.23146
84,2.800,-0.150,10.107,-0.487,7.75987,12.72376,-26.78181
85,2.833,0.067,10.764,0.365,13.01318,9.95945,-26.58048
86,2.867,-0.034,10.292,0.268,14.99859,15.16251,-26.64160
87,2.900,-0.184,10.111,0.176,13.46583,19.67622,-22.42523
88,2.933,0.411,9.934,-0.199,15.71108,24.55864,-21.71483
89,2.967,0.979,9.994,-0.354,10.82423,32.68234,-23.05346
90,3.000,1.002,10.037,-0.660,16.45900,27.78758,-23.64129
91,3.033,0.505,9.486,-0.358,25.87066,20.84922,-24.85895
92,3.067,0.753,9.826,2.226,26.97238,25.71255,-20.40529
93,3.100,0.700,8.834,1.571,40.48305,32.84198,-12.60517
94,3.133,1.774,9.966,1.792,23.75761,35.86964,-1.52673
95,3.167,2.507,12.568,2.965,23.93199,40.09484,2.16722
96,3.200,1.719,10.110,1.586,51.12224,43.41798,15.43869
97,3.233,4.867,8.750,2.014,55.36058,32.30240,32.31072
98,3.267,4.841,11.167,3.521,52.05761,15.60882,17.43211
99,3.300,2.988,10.530,2.038,53.11403,15.84556,14.07032
100,3.333,3.263,8.091,-0.146,55.38932,13.84482,28.71262
101,3.367,4.051,6.069,-0.758,63.89095,-1.85460,44.16299
102,3.400,5.402,4.034,-0.185,41.38595,-46.46172,52.12440
103,3.433,6.457,4.144,0.083,-16.19254,-75.43320,60.19382
104,3.467,5.857,3.750,0.113,-47.68420,-92.06864,61.24217
105,3.500,-4.329,8.584,9.598,-170.38049,-70.46421,15.35231
106,3.533,-16.179,19.237,-5.861,45.34559,42.11523,21.65011
107,3.567,-1.218,-1.556,6.252,-11.62856,-6.79668,92.35528
108,3.600,5.596,6.013,1.056,-73.38693,15.43602,41.20903
109,3.633,0.111,16.931,4.046,-45.06307,-22.45816,12.83676
110,3.667,-2.123,8.888,4.123,20.42100,-29.23038,18.89997
111,3.700,-1.913,4.498,2.354,-35.45360,-6.94131,23.82116
112,3.733,-2.868,7.409,3.351,-52.15514,-7.03826,11.30049
113,3.767,-0.619,11.644,3.582,-46.60718,-7.26633,12.45943
114,3.800,-1.371,9.952,2.358,-27.87549,-18.31437,13.11853
115,3.833,-2.388,8.884,2.005,-23.91970,-18.09104,6.19924
116,3.867,-2.718,9.122,1.943,-28.25681,-13.72643,1.82579
117,3.900,-2.375,9.364,2.123,-26.70049,-16.33377,-0.20268
118,3.933,-2.416,9.237,1.623,-27.76846,-20.26217,3.92016
119,3.967,-2.367,9.386,1.235,-24.13501,-13.89525,-3.36241
120,4.000,-2.119,9.536,0.639,-6.22200,-8.67643,-10.21784
121,4.033,-2.048,9.311,0.405,-13.63277,-20.88995,-8.02828
122,4.067,-1.327,9.320,0.752,-11.88798,-22.82491,-6.58482
123,4.100,-2.218,10.166,0.497,2.37089,-17.52730,-7.80928
124,4.133,-2.160,9.670,0.753,18.25435,-14.44779,-11.25383
125,4.167,-2.017,8.738,0.857,9.15621,-9.40506,-15.80386
126,4.200,-1.642,9.261,0.177,-8.08288,-8.67222,-16.77728
127,4.233,-1.143,10.282,-0.051,0.44054,-6.74876,-18.44130
128,4.267,-1.643,10.311,0.174,8.18384,-9.64825,-18.52145
129,4.300,-1.028,10.032,0.276,14.76165,-10.60188,-20.12214
130,4.333,-1.169,9.405,0.224,18.26388,-7.90586,-20.42300
131,4.367,-1.225,8.947,-0.053,4.30902,-4.34642,-17.14001
132,4.400,-0.750,9.579,-0.102,-4.80332,-5.98443,-16.38874
133,4.433,-0.408,10.534,-0.221,-0.93067,-11.12189,-21.90143
134,4.467,-0.337,10.598,-0.328,14.86438,-4.55998,-26.02607
135,4.500,-1.295,9.366,0.433,6.90796,-3.47259,-22.64353
136,4.533,-1.027,9.474,0.051,-2.10548,0.87782,-19.92242
137,4.567,0.073,10.369,-0.266,1.25647,-2.52845,-20.73490
138,4.600,-0.215,10.934,-0.536,8.80394,-1.60316,-22.85300
139,4.633,-0.133,10.346,-0.601,11.71881,-3.13868,-24.25951
140,4.667,-0.406,10.590,-0.868,24.33731,4.01664,-25.47387
141,4.700,-0.907,10.580,-1.115,32.64580,17.56457,-24.03126
142,4.733,-1.165,10.366,-0.440,36.90058,31.09189,-25.15931
143,4.767,1.206,11.704,0.324,40.98727,34.71008,-31.57167
144,4.800,-0.867,11.006,3.818,63.11497,48.23347,-33.41826
145,4.833,-3.816,8.493,5.444,46.78675,77.96341,-33.76651
146,4.867,-0.988,8.872,2.851,17.64538,87.50006,-3.70632
147,4.900,3.935,8.666,1.806,6.20515,64.85204,17.93862
148,4.933,6.347,10.092,3.981,27.77458,38.71830,20.49607
149,4.967,3.063,10.508,1.429,2.82671,31.66075,6.60198
150,5.000,3.504,9.463,1.308,19.31715,25.69759,17.18913
151,5.033,4.977,8.346,-1.268,51.25196,15.68259,35.00485
152,5.067,4.280,5.345,-0.631,49.46497,-3.73687,36.55044
153,5.100,4.956,3.462,-0.008,16.70804,-40.14507,35.26107
154,5.133,5.555,3.806,-0.580,-53.28076,-50.48578,27.06783
155,5.167,2.480,6.955,0.568,-118.75681,-54.33015,13.49689
156,5.200,-9.580,19.613,7.603,-42.78287,-19.76292,-40.23301
157,5.233,-5.360,6.328,1.700,68.72470,44.39973,30.87352
158,5.267,2.374,1.489,5.673,-64.37505,-19.23803,60.45070
159,5.300,5.797,19.115,5.522,-25.73384,-26.27965,11.01580
160,5.333,-4.568,9.464,3.527,8.92129,-26.73453,22.06117
161,5.367,-0.776,5.886,2.487,-25.89827,-23.63266,35.69410
162,5.400,-2.285,6.728,2.527,-15.96437,-14.07502,26.53979
163,5.433,-3.232,9.255,2.826,-27.12064,0.03482,15.81402
164,5.467,-1.991,9.445,2.429,-24.50437,1.32375,26.28764
165,5.500,-0.515,7.220,1.637,-25.37141,-7.98069,18.12260
166,5.533,-1.144,8.689,1.791,-31.98984,-16.64981,9.87232
167,5.567,-1.429,9.677,1.756,-28.34367,-16.80578,8.03684
168,5.600,-1.017,8.868,1.519,-26.66962,-19.58976,4.19044
169,5.633,-1.696,9.144,1.037,-25.80079,-20.54855,-0.38084
170,5.667,-2.182,9.237,1.103,-23.77401,-19.05809,-0.46164
171,5.700,-1.859,8.982,0.749,-23.12956,-13.48556,0.86450
172,5.733,-1.487,9.549,1.454,-19.88850,-17.88543,-0.34835
173,5.767,-2.218,10.027,0.790,-15.60969,-13.53790,-2.91133
174,5.800,-2.213,9.845,0.412,-19.04218,-4.36412,-6.06425
175,5.833,-2.458,9.806,0.060,-11.12843,2.17050,-9.36730
176,5.867,-1.797,9.443,-0.405,-13.97764,0.34809,-6.16098
177,5.900,-0.857,9.462,-0.212,-15.51035,-7.34482,-6.47081
178,5.933,-1.474,10.118,-0.518,-13.47173,-6.18030,-11.10736
179,5.967,-1.457,9.960,-0.623,-7.27289,-9.11909,-8.29605
180,6.000,-1.583,10.161,-0.220,0.51866,-8.13006,-12.13706
181,6.033,-1.206,9.476,-0.377,1.15438,-9.46715,-13.53872
182,6.067,-1.145,10.343,-0.843,7.29160,-6.92800,-17.19612
183,6.100,-0.625,9.772,-0.450,14.79118,-9.22992,-21.26717
184,6.133,-0.946,9.685,-0.702,16.78888,-4.27826,-23.37955
185,6.167,-1.360,10.908,-0.451,28.35812,0.64850,-19.86416
186,6.200,-1.450,10.342,0.046,38.16113,4.72299,-20.60106
187,6.233,-1.556,9.372,-0.422,26.72383,12.42854,-20.76927
188,6.267,-0.803,10.024,-0.044,11.67759,20.23006,-20.46265
189,6.300,-0.485,9.927,-0.525,9.98284,22.22109,-21.48636
190,6.333,-0.054,10.373,-0.158,14.85047,23.48573,-20.83112
191,6.367,0.095,10.463,-0.237,26.72699,18.16533,-22.67149
192,6.400,-0.636,9.765,0.372,30.42450,17.84234,-24.49391
193,6.433,0.467,9.994,0.098,30.41236,21.19161,-24.75885
194,6.467,1.663,11.278,0.210,37.05015,17.50512,-29.21309
195,6.500,0.742,10.599,1.370,44.57843,9.13972,-28.37636
196,6.533,-0.451,9.258,2.054,32.57415,21.02419,-37.14177
197,6.567,0.584,9.856,2.494,30.74645,20.14850,-32.58515
198,6.600,0.379,9.467,3.386,14.79252,28.95603,-24.49914
199,6.633,-0.420,8.336,2.418,-0.62322,35.28279,-17.31279
200,6.667,1.169,8.430,1.143,15.76840,28.76008,2.00119
201,6.700,5.200,10.526,2.020,32.44174,8.22335,16.49531
202,6.733,5.916,12.969,3.812,52.34340,-8.78157,8.02173
203,6.767,1.177,9.363,2.625,37.53276,0.81491,6.03035
204,6.800,1.088,7.336,2.270,23.32199,7.12179,16.14019
205,6.833,2.502,7.205,0.839,19.23087,5.62993,25.05309
206,6.867,4.041,7.412,0.535,14.89901,-8.81728,40.77931
207,6.900,5.675,6.645,0.782,14.84958,-32.30652,37.47034
208,6.933,4.070,5.227,1.740,-34.28499,-76.67813,42.95843
209,6.967,2.533,10.270,5.060,-13.01352,-75.93389,50.06558
210,7.000,-9.403,19.613,0.407,-46.76636,-3.04995,-26.98747
211,7.033,-4.124,2.458,6.286,26.37848,-6.71941,57.85687
212,7.067,1.154,7.131,4.911,-32.67841,-8.68374,52.33420
213,7.100,-0.807,14.908,4.914,5.80204,-12.59416,22.09167
214,7.133,-2.786,6.987,3.906,0.81761,-14.66713,19.60771
215,7.167,-1.867,6.487,3.355,-27.96599,-6.71749,19.64824
216,7.200,-2.102,8.261,3.437,-15.90596,-7.45208,15.87800
217,7.233,-2.176,8.483,4.033,-29.09463,-8.88910,14.72876
218,7.267,-1.456,9.125,3.197,-31.85596,-8.14354,11.17033
219,7.300,-1.005,8.251,2.944,-31.48985,-21.11134,7.14750
220,7.333,-2.034,8.983,2.915,-25.08586,-23.91646,2.26502
221,7.367,-2.348,8.659,2.952,-27.03252,-20.04494,0.55308
222,7.400,-2.150,8.956,2.031,-32.05449,-16.47495,-0.24426
223,7.433,-1.877,8.775,1.946,-32.95062,-18.98037,-4.02977
224,7.467,-2.069,9.504,1.725,-28.16683,-19.93497,-9.33166
225,7.500,-1.919,8.962,1.600,-25.20363,-16.58326,-9.48028
226,7.533,-2.062,9.013,1.395,-33.03324,-14.13005,-11.05198
227,7.567,-2.089,9.463,1.103,-31.97040,-15.03153,-11.37268
228,7.600,-1.367,9.314,1.203,-32.92986,-16.76740,-11.92598
229,7.633,-1.427,9.785,0.966,-30.45901,-17.47708,-14.07308
230,7.667,-1.823,10.190,0.519,-16.69922,-12.06547,-13.80310
231,7.700,-2.412,10.027,0.778,-8.13216,-3.88307,-16.61373
232,7.733,-2.006,10.049,0.688,-6.51593,1.40813,-17.76226
233,7.767,-1.505,9.605,0.481,-9.00483,2.91147,-16.46968
234,7.800,-1.038,10.270,0.466,-12.70171,2.73272,-22.04475
235,7.833,-0.362,10.147,-0.028,-9.70817,-0.82458,-22.30236
236,7.867,-0.774,10.008,-0.330,-8.55476,-4.04917,-22.88929
237,7.900,-0.972,10.326,-0.738,-3.24060,-3.72560,-22.25003
238,7.933,-0.687,10.648,-0.380,12.07184,-2.59114,-20.68131
239,7.967,-0.714,10.812,-0.243,25.11721,-5.27341,-21.52176
240,8.000,-0.931,10.014,-0.470,22.91773,-1.74922,-21.38058
241,8.033,-0.663,10.151,-0.237,13.65224,1.84987,-19.73960
242,8.067,-0.844,10.619,-0.424,12.99945,6.51652,-18.72677
243,8.100,-0.603,10.184,-0.621,14.41966,14.35150,-21.67600
244,8.133,0.245,9.964,-0.579,15.84457,12.79080,-22.32982
245,8.167,0.455,9.426,-0.902,17.48893,12.22730,-24.46536
246,8.200,0.448,9.346,-1.024,15.30461,22.49006,-29.43978
247,8.233,1.224,10.443,-0.513,19.07683,25.20761,-28.71227
248,8.267,1.552,11.388,0.574,23.22347,7.92149,-13.83255
249,8.300,1.519,10.807,1.809,44.49138,-1.72456,-13.95268
250,8.333,-0.578,10.536,2.742,43.82842,15.31698,-27.55773
251,8.367,-0.261,9.519,3.267,19.56810,38.09233,-28.54255
252,8.400,-0.725,8.272,3.887,5.63660,49.31138,-12.90306
253,8.433,-0.733,9.512,3.235,33.22459,59.48186,2.99095
254,8.467,2.257,9.758,3.093,47.46918,48.88596,25.43485
255,8.500,6.385,11.280,4.177,44.25698,21.35128,24.15285
256,8.533,3.415,10.527,1.124,35.78895,-4.62507,4.56892
257,8.567,2.134,8.504,0.232,40.93567,-13.15631,16.09648
258,8.600,1.174,7.212,-0.243,51.85679,0.49385,31.45526
259,8.633,3.001,6.354,-0.428,34.01939,-12.04758,48.36256
260,8.667,4.890,6.009,-0.588,-3.11132,-45.47901,61.40950
261,8.700,5.389,4.402,0.611,-48.81083,-72.48230,60.24547
262,8.733,2.310,6.206,-0.689,-76.10699,-61.86000,54.06459
263,8.767,-1.712,7.794,1.460,-117.74329,-56.87886,58.14749
264,8.800,-15.533,19.613,12.928,-77.43437,-1.28940,2.71576
265,8.833,-6.801,8.386,2.953,58.07455,38.37848,62.11698
266,8.867,2.630,4.772,3.305,-73.00050,9.49453,46.76262
267,8.900,-1.905,18.721,5.089,-80.28206,3.22277,14.54875
268,8.933,-3.976,10.454,4.479,36.41880,-3.00224,47.18041
269,8.967,-2.548,5.245,2.198,-2.55274,11.98146,22.07053
270,9.000,-1.348,5.913,3.274,-52.46551,7.84244,10.73980
271,9.033,-1.126,10.400,3.565,-29.13319,-6.00811,7.45816
272,9.067,-2.207,8.215,2.292,-2.51359,-11.57913,4.72424
273,9.100,-2.703,7.236,1.985,-7.56542,-5.68550,-4.07111
274,9.133,-3.250,8.440,1.479,-14.02525,1.07177,-8.58817
275,9.167,-2.908,8.746,1.162,-9.92447,-1.66081,-5.89134
276,9.200,-3.050,8.434,1.279,-15.85122,-7.63573,-9.38475
277,9.233,-2.538,9.552,1.148,-12.07255,-6.91535,-10.99218
278,9.267,-1.923,9.010,1.793,-9.17842,-10.86739,-8.62242
279,9.300,-2.608,8.692,1.200,-11.06661,-10.58520,-10.75332
280,9.333,-2.398,8.791,0.919,-15.50281,-9.11029,-15.68864
281,9.367,-2.512,8.800,0.848,-22.97293,-9.13497,-19.15840
282,9.400,-2.647,10.322,0.468,-23.03887,-5.63930,-18.33158
283,9.433,-2.314,10.041,0.340,-17.31672,-7.66611,-17.95883
284,9.467,-2.080,9.605,-0.094,-17.68984,-8.40191,-18.34741
285,9.500,-2.004,9.744,0.222,-11.16972,-9.08626,-21.81056
286,9.533,-2.464,10.328,-0.348,-2.63342,-5.67384,-23.97471
287,9.567,-1.981,9.585,-0.527,0.55521,-4.78080,-21.67522
288,9.600,-1.302,9.223,-0.492,0.15178,-11.14988,-19.92609
289,9.633,-2.166,9.302,0.027,-7.68325,-7.51397,-19.68843
290,9.667,-1.862,9.932,-0.562,-7.49358,-3.82060,-19.36283
291,9.700,-1.472,9.448,-0.552,-9.08753,-1.06393,-17.84122
292,9.733,-1.197,10.480,-0.336,-6.81012,-1.29589,-17.14944
293,9.767,-1.003,10.593,-0.174,9.99638,2.35514,-14.93251
294,9.800,-0.878,10.054,-0.296,18.69569,2.52740,-17.39305
295,9.833,-0.505,9.929,-0.775,14.03798,1.92464,-17.70019
296,9.867,-0.425,10.032,-0.534,7.03787,6.25443,-21.16134
297,9.900,-0.051,10.079,-0.576,11.16715,2.81118,-20.82606
298,9.933,0.494,10.253,-0.490,21.28355,-5.87034,-25.11231
299,9.967,0.475,9.967,-0.396,29.09760,-7.35024,-29.25058
300,10.000,0.253,9.689,-0.664,26.27240,-4.88917,-29.63859
301,10.033,-0.115,9.648,-0.310,26.91345,1.54547,-28.97857
302,10.067,0.310,9.788,0.284,23.40590,7.19389,-31.96827
303,10.100,0.641,10.276,0.507,30.88385,6.93575,-34.20316
304,10.133,0.277,10.021,1.447,24.66570,11.33821,-34.93956
305,10.167,-0.108,10.464,2.075,17.35784,15.52140,-34.35540
306,10.200,0.691,11.243,2.925,17.70123,22.32177,-31.01116
307,10.233,-0.205,9.705,4.460,13.63985,46.02168,-16.32124
308,10.267,-0.324,8.461,2.949,11.86740,49.25765,4.67776
309,10.300,2.303,9.698,0.939,27.41641,24.31096,15.93530
310,10.333,5.209,12.896,1.942,45.60111,4.21300,9.24568
311,10.367,3.867,11.380,0.513,74.01908,-3.54642,3.67985
312,10.400,2.085,7.150,0.946,59.82986,0.28182,10.31876
313,10.433,1.964,7.107,0.454,34.13832,-2.41660,16.56341
314,10.467,3.224,8.064,0.256,18.92299,-16.24293,27.46262
315,10.500,3.609,7.573,-0.518,17.74070,-31.03007,35.20453
316,10.533,4.408,5.990,-1.193,13.76985,-59.12147,51.85128
317,10.567,3.890,3.771,0.610,-42.55958,-56.72050,41.84282
318,10.600,-0.059,7.043,0.843,-99.96740,-59.09786,41.63134
319,10.633,-10.632,19.260,10.995,-13.80218,-9.69684,3.53421
320,10.667,-11.123,11.784,0.953,-3.42006,66.91033,23.49104
321,10.700,3.151,8.087,6.065,-83.87659,30.16201,72.54068
322,10.733,4.180,16.299,5.052,-6.44584,7.46592,31.96684
323,10.767,-2.159,8.442,5.036,-7.36614,-24.47689,40.75222
324,10.800,-2.570,9.145,3.951,-22.01602,-12.99794,31.58253
325,10.833,-2.440,7.506,3.067,-9.32724,-10.42420,30.95128
326,10.867,-2.253,7.600,3.191,-17.77960,-4.44507,16.66754
327,10.900,-1.969,9.307,2.758,-9.84828,-2.47627,9.05160
328,10.933,-2.062,8.598,2.430,0.96517,-2.34448,6.25675
329,10.967,-2.369,8.218,2.466,-7.23761,-6.08241,5.04328
330,11.000,-2.971,8.422,1.416,-12.84558,-5.21313,4.84006
331,11.033,-3.297,9.371,2.101,-11.32508,-0.02510,0.24878
332,11.067,-3.384,9.254,2.249,-6.13508,4.69536,-0.98640
333,11.100,-2.461,8.717,1.862,-13.58295,-4.00754,6.42270
334,11.133,-1.714,8.500,1.824,-21.78237,-11.14131,4.93484
335,11.167,-2.153,8.504,0.994,-28.05653,-4.40240,-3.52712
336,11.200,-2.471,9.117,0.536,-23.40704,-3.00322,-6.01845
337,11.233,-2.856,9.308,0.950,-23.80245,0.03184,-8.89156
338,11.267,-1.861,9.312,0.580,-26.62262,1.31364,-14.81908
339,11.300,-1.119,9.615,0.695,-26.73849,-3.31208,-23.61378
340,11.333,0.197,9.055,0.735,-21.09271,-12.26585,-24.81635
341,11.367,-2.152,10.785,0.284,-6.72039,-17.23467,-28.21045
342,11.400,-1.969,9.675,0.375,-2.43824,-12.80288,-32.86460
343,11.433,-1.711,10.078,-0.480,-6.92060,-6.48755,-34.73073
344,11.467,-1.588,10.932,0.317,6.49473,-12.03312,-31.03764
345,11.500,-1.328,9.886,0.860,13.83880,-8.01414,-31.05084
346,11.533,-1.440,9.456,0.639,5.79633,-6.95110,-26.42358
347,11.567,-1.977,10.044,-0.067,2.14700,2.07477,-20.17843
348,11.600,-0.699,10.581,0.109,9.25026,0.89166,-20.61662
349,11.633,-0.589,9.885,-0.313,8.88248,0.82358,-19.88897
350,11.667,-0.979,9.354,-0.314,-1.41701,9.17318,-22.98902
351,11.700,-1.063,10.209,-0.539,0.41760,16.08965,-22.69400
352,11.733,-0.856,10.600,-0.789,10.06882,29.16420,-24.25176
353,11.767,-0.392,10.724,-0.550,19.88167,31.57890,-23.38146
354,11.800,0.142,10.379,-0.417,25.14944,29.52230,-24.71879
355,11.833,0.079,10.344,-0.283,26.81639,32.63640,-24.65611
356,11.867,1.127,10.848,0.351,30.06564,30.99106,-23.52379
357,11.900,1.328,10.946,0.930,34.98063,15.29440,-18.33542
358,11.933,0.471,9.900,1.125,29.64049,6.53077,-24.32443
359,11.967,0.306,9.380,1.867,19.23582,14.60967,-35.35429
360,12.000,0.017,9.643,3.406,10.09716,23.37084,-38.53278
361,12.033,-0.945,9.492,4.016,-6.75429,41.76253,-27.47798
362,12.067,-0.018,8.736,1.598,24.73464,52.75961,-7.26963
363,12.100,3.243,7.017,0.913,33.87774,29.94665,16.01214
364,12.133,5.890,10.473,2.359,-17.90418,15.02013,3.35193
365,12.167,5.360,15.276,0.379,41.82563,-13.22245,-7.81727
366,12.200,2.081,8.354,-0.089,72.46780,-15.40520,14.62689
367,12.233,2.214,6.276,-0.579,51.02141,-11.70202,27.10197
368,12.267,3.006,6.476,-0.446,19.03534,-14.30111,34.55572
369,12.300,3.727,6.806,-0.117,4.49253,-25.37873,45.59067
370,12.333,3.739,6.736,-0.976,5.09666,-50.25251,65.41275
371,12.367,4.094,5.101,0.270,-27.58042,-56.11932,61.13612
372,12.400,-0.232,7.945,4.085,-70.70489,-43.70005,42.00671
373,12.433,-10.623,19.613,5.160,49.71661,-29.40477,-3.07454
374,12.467,-4.949,5.652,5.774,45.80640,23.30801,54.92884
375,12.500,-0.760,6.816,6.016,-92.23580,39.24171,43.66954
376,12.533,1.082,16.653,6.062,-11.66889,19.37426,25.76715
377,12.567,-1.171,7.260,3.488,1.88710,-8.39757,30.91333
378,12.600,-1.455,5.957,3.636,-14.92853,-10.36327,27.67405
379,12.633,-1.461,6.444,3.822,-17.21657,-2.42162,17.22264
380,12.667,-1.919,8.569,3.711,-34.57514,-1.13804,10.53027
381,12.700,-1.497,9.404,3.198,-19.01662,-6.35159,9.53156
382,12.733,-1.093,8.288,3.114,-16.57146,-9.54062,3.67335
383,12.767,-1.903,8.442,2.766,-20.41898,-7.06078,0.35645
384,12.800,-2.389,8.633,2.497,-18.00304,-8.17375,-1.15115
385,12.833,-2.145,8.715,2.097,-25.45847,-6.33362,-3.02149
386,12.867,-1.931,8.800,2.064,-34.00466,-7.13473,-5.70764
387,12.900,-1.872,9.128,1.830,-33.47580,-5.54279,-7.95621
388,12.933,-2.161,9.563,1.754,-31.37717,-10.28737,-6.48603
389,12.967,-2.227,9.587,1.409,-30.50594,-9.37699,-8.24189
390,13.000,-2.283,9.729,1.115,-27.24502,-7.48684,-11.63901
391,13.033,-1.638,9.804,0.791,-26.72898,-7.75301,-15.56424
392,13.067,-1.679,10.104,0.808,-24.00778,-11.30391,-17.52268
393,13.100,-2.252,9.998,1.083,-19.64575,-10.32350,-18.60643
394,13.133,-2.226,9.709,0.860,-18.50304,-6.39884,-21.15272
395,13.167,-1.608,9.147,0.476,-27.38440,-3.70108,-25.37069
396,13.200,-1.138,9.697,0.093,-24.83646,-0.34977,-31.56448
397,13.233,-0.582,10.039,-0.027,-19.21117,-1.44030,-35.49122
398,13.267,-0.203,9.848,0.125,-10.73149,-11.71989,-28.62723
399,13.300,-1.521,10.180,-0.205,-9.13996,-15.60653,-21.13515
400,13.333,-1.059,9.934,-0.550,-3.36167,-10.53766,-19.16247
401,13.367,-0.604,10.322,-0.540,5.21558,-12.60228,-20.29298
402,13.400,0.082,10.289,-0.540,11.51510,-18.59610,-21.81578
403,13.433,-0.192,10.425,-0.668,16.00442,-11.84886,-23.68800
404,13.467,-0.755,10.157,-0.601,17.41683,-6.78484,-21.96130
405,13.500,-0.254,9.639,-0.368,8.54662,-3.76875,-20.65446
406,13.533,0.024,10.240,-0.784,13.58419,3.03707,-21.20523
407,13.567,0.528,9.952,-0.739,16.59223,3.59959,-20.55463
408,13.600,0.139,9.894,-0.683,15.75555,3.69115,-19.57703
409,13.633,-0.069,9.888,-0.537,20.26172,12.65387,-24.23299
410,13.667,0.297,9.659,-0.560,24.92088,17.54257,-25.04497
411,13.700,1.677,9.499,-0.222,24.92404,24.84031,-30.46893
412,13.733,1.981,11.039,0.044,23.87511,23.03401,-26.31778
413,13.767,1.451,11.105,0.858,26.66690,6.23604,-23.01396
414,13.800,0.462,9.871,1.939,26.56379,5.56944,-21.83559
415,13.833,0.209,9.634,2.482,19.70338,10.00936,-13.76746
416,13.867,0.481,9.492,3.595,18.16642,29.60409,-7.47057
417,13.900,0.842,9.744,1.443,22.11323,32.90419,12.78457
418,13.933,3.297,9.418,0.615,33.81492,10.60181,29.56908
419,13.967,5.218,10.902,1.594,28.25999,-8.75315,20.58659
420,14.000,2.444,11.737,0.928,42.76125,-16.20475,18.87481
421,14.033,1.512,8.306,-0.051,60.17378,-15.42407,30.17067
422,14.067,1.681,6.755,-0.688,52.67595,-15.60377,38.79507
423,14.100,2.749,6.519,-0.847,30.13069,-19.38709,47.64978
424,14.133,3.572,5.699,-0.645,4.42019,-27.21654,51.82845
425,14.167,2.985,4.151,-0.289,-25.70578,-48.87308,53.71152
426,14.200,1.669,4.772,-1.114,-70.52367,-47.49057,49.69664
427,14.233,-1.871,7.850,2.741,-168.27862,-27.13184,32.97350
428,14.267,-18.999,19.613,-2.133,-18.18403,58.52214,-17.38856
429,14.300,2.515,4.073,5.579,35.87254,42.28500,81.35849
430,14.333,6.530,9.195,3.898,-66.58865,12.41337,44.11938
431,14.367,-5.948,16.938,4.055,-5.07326,-8.60610,36.91034
432,14.400,-3.611,6.826,2.584,-17.38290,11.88583,27.01047
433,14.433,-0.645,6.918,3.185,-23.69419,1.56672,21.31311
434,14.467,-1.349,7.595,3.593,-27.88115,4.50542,16.70479
435,14.500,-0.897,7.951,2.183,-21.41331,-2.45565,11.61366
436,14.533,-1.056,8.333,2.086,-2.28421,-7.80834,-1.12306
437,14.567,-2.259,8.143,1.983,-6.30180,-1.28073,-5.45560
438,14.600,-3.559,7.866,1.471,-16.72514,-3.03292,-4.25708
439,14.633,-3.015,9.076,1.699,-24.12466,0.02721,-9.89994
440,14.667,-2.232,9.170,1.570,-20.06182,8.26136,-12.42161
441,14.700,-2.489,9.234,0.572,-22.66089,9.54214,-15.04963
442,14.733,-2.700,9.961,0.795,-18.97356,4.95344,-13.97191
443,14.767,-1.739,9.080,0.519,-15.22439,3.55705,-13.37428
444,14.800,-1.850,9.908,0.919,-5.26068,4.29752,-14.24427
445,14.833,-2.758,9.555,0.267,-0.74906,7.49272,-13.19264
446,14.867,-2.153,8.689,0.169,-10.73062,6.66150,-13.90579
447,14.900,-1.505,9.200,0.336,-15.78320,5.50218,-14.62358
448,14.933,-1.593,9.543,-0.078,-11.74073,5.00508,-16.61742
449,14.967,-1.814,10.415,0.127,-3.38117,4.70779,-19.11867
450,15.000,-1.793,9.664,0.066,-5.83318,5.17499,-16.92677
451,15.033,-1.293,9.686,-0.528,-4.59285,6.74142,-20.80245
452,15.067,-0.288,9.595,-0.258,-1.91278,-0.51837,-23.81406
453,15.100,0.032,9.312,0.243,-0.20681,-12.76343,-23.31400
454,15.133,-0.360,10.819,0.597,5.74974,-16.11732,-28.74738
455,15.167,-1.214,11.199,0.129,22.43559,-9.93014,-29.74740
456,15.200,-1.626,9.974,0.186,12.39907,-8.61550,-24.92073
457,15.233,-0.703,9.984,0.475,3.84027,-10.67540,-23.84800
458,15.267,0.078,10.713,-0.206,7.71438,-11.08552,-26.57980
459,15.300,0.282,10.585,-0.297,20.67038,-15.53358,-31.89620
460,15.333,-0.097,10.004,-0.066,21.42286,-17.47565,-30.72049
461,15.367,-0.651,9.771,-0.071,19.96002,-16.92123,-30.73070
462,15.400,-0.789,10.222,-0.102,20.60015,-6.20984,-31.12277
463,15.433,-0.139,9.982,-0.505,14.04021,-0.80420,-28.95063
464,15.467,0.809,9.974,-0.400,-1.17477,3.65210,-25.81583
465,15.500,0.462,10.710,-0.886,1.81666,7.72256,-23.28994
466,15.533,-0.946,10.121,-0.580,26.70589,5.05376,-20.25360
467,15.567,0.807,8.931,1.278,30.57826,-3.27766,-12.40945
468,15.600,1.157,9.047,1.649,20.29910,-4.66569,-9.16861
469,15.633,0.899,10.353,2.494,17.83297,10.03994,-5.58708
470,15.667,-0.821,10.583,2.096,18.34738,30.23378,5.60797
471,15.700,1.606,9.735,1.620,35.53215,30.01849,21.47465
472,15.733,4.837,9.952,3.031,37.26320,10.43832,25.52698
473,15.767,5.234,11.688,3.448,28.67479,1.38005,3.42676
474,15.800,1.186,9.723,1.598,26.25869,6.05973,7.25768
475,15.833,0.303,8.752,0.216,31.70200,15.04110,18.28702
476,15.867,2.461,7.080,-1.063,51.75128,3.30136,40.55097
477,15.900,5.184,4.683,-1.233,64.54292,-27.64712,50.22802
478,15.933,5.482,2.514,-0.770,61.14709,-45.87336,48.06532
479,15.967,2.453,3.709,-2.183,-18.19922,-53.15335,42.57779
480,16.000,-2.164,4.085,4.765,-210.52516,-34.55675,-5.19166
481,16.033,-13.482,19.613,2.105,-123.75657,37.15662,6.84505
482,16.067,1.679,1.807,5.828,152.50735,-33.37823,65.13469
483,16.100,1.839,9.897,2.954,-136.92222,43.83931,11.04893
484,16.133,-4.186,16.620,1.204,27.46602,3.64717,18.41531
485,16.167,-2.655,3.445,3.319,-3.87389,7.86391,32.33091
486,16.200,-0.973,7.364,0.647,-27.65312,13.68440,26.53560
487,16.233,0.522,8.218,3.584,-17.51297,4.45412,17.98442
488,16.267,0.429,8.449,2.312,-23.96997,-16.34700,21.40682
489,16.300,-0.776,8.791,1.631,-3.32182,-36.01561,22.02854
490,16.333,-1.505,8.282,2.651,13.47068,-34.45540,8.96219
491,16.367,-2.760,8.648,1.740,-0.20508,-24.69236,4.97302
492,16.400,-2.647,10.264,1.437,3.09583,-22.72127,4.65777
493,16.433,-1.967,9.510,1.938,5.15968,-23.49421,0.49902
494,16.467,-1.430,9.041,1.901,7.56713,-24.08939,-5.45531
495,16.500,-2.262,8.116,1.765,-0.73677,-19.27929,-9.06972
496,16.533,-2.235,9.390,1.006,-12.19206,-13.25721,-13.52404
497,16.567,-2.245,10.014,0.629,1.92231,-11.61822,-17.53580
498,16.600,-2.283,9.411,0.923,-0.27490,-7.90506,-16.29421
499,16.633,-1.818,9.232,0.547,-3.64518,-6.69892,-17.37222
500,16.667,-1.690,8.797,0.739,-11.43204,-6.51686,-18.60713
501,16.700,-1.733,9.409,0.681,-19.22205,-3.13236,-19.51228
502,16.733,-1.096,10.038,0.376,-12.98841,-5.31363,-21.25800
503,16.767,-1.209,9.550,0.531,-11.73390,-5.53963,-24.22732
504,16.800,-0.961,9.373,0.411,-16.58705,-4.40789,-26.18775
505,16.833,-1.008,10.278,0.153,-16.62062,-3.74360,-27.41102
506,16.867,-1.276,10.369,-0.210,-10.08620,1.29509,-28.21697
507,16.900,-1.320,10.114,-0.398,-7.93589,4.55163,-27.65657
508,16.933,-0.692,10.495,-0.318,-1.33882,4.82808,-26.15120
509,16.967,-1.280,11.299,-0.527,14.25474,6.76004,-22.39379
510,17.000,-0.682,9.807,0.261,18.94526,12.55556,-22.80677
511,17.033,-0.291,9.631,-0.046,3.54141,16.04494,-22.69354
512,17.067,-0.598,10.501,-0.569,4.56498,17.41756,-16.36985
513,17.100,-0.068,10.146,-0.532,8.03281,18.92715,-16.15973
514,17.133,0.029,9.554,-0.512,3.49013,18.68151,-19.06098
515,17.167,-0.328,10.270,-1.071,8.75899,24.18173,-18.03505
516,17.200,1.270,10.193,-0.839,19.30559,26.20336,-19.36095
517,17.233,2.258,10.333,-0.235,18.89329,7.59312,-17.25271
518,17.267,2.336,9.616,0.263,11.09038,-8.83027,-21.53334
519,17.300,-0.297,9.579,2.024,12.76219,-11.72041,-27.95577
520,17.333,-1.784,11.089,3.249,24.58899,5.21671,-22.39560
521,17.367,0.099,9.292,3.377,19.48971,25.42072,-6.45498
522,17.400,0.747,9.944,1.962,12.62012,35.27365,8.05429
523,17.433,1.494,10.874,1.418,23.09251,24.78128,19.18990
524,17.467,2.929,11.694,2.092,17.11238,31.49387,9.67970
525,17.500,1.443,9.846,0.602,33.06989,31.16672,6.81133
526,17.533,2.007,7.888,-0.685,47.29909,17.90300,22.49161
527,17.567,2.756,6.647,-1.341,42.08185,9.92146,32.30975
528,17.600,3.514,6.310,-2.131,24.77695,0.73451,36.32561
529,17.633,3.506,3.725,-1.215,4.75807,-22.32132,36.86415
530,17.667,2.761,3.783,-1.115,-60.92472,-24.70859,32.16855
531,17.700,2.109,7.111,0.594,-141.75827,-48.90302,46.12386
532,17.733,-16.508,19.613,12.851,77.90503,3.64956,-33.08841
533,17.767,-6.828,0.496,2.602,-18.11121,47.94115,38.13784
534,17.800,4.072,8.801,2.911,-116.51399,13.21454,69.55024
535,17.833,-1.590,18.165,3.664,28.06805,-29.49933,42.85440
536,17.867,-2.662,9.094,3.119,-35.35387,-18.06496,42.13122
537,17.900,-0.998,8.173,3.017,-12.24226,-16.19715,37.48411
538,17.933,0.008,6.013,2.958,-16.49335,-17.20722,27.37762
539,17.967,-1.934,8.745,3.030,-14.67989,-11.19515,8.15700
540,18.000,-2.596,8.644,2.242,3.20995,-8.05631,2.11769
541,18.033,-2.565,7.741,1.903,-5.19915,-5.30610,2.85428
542,18.067,-3.260,8.359,1.964,-15.16993,6.16665,-1.42994
543,18.100,-3.046,8.532,1.361,-19.45322,15.06652,-2.81013
544,18.133,-2.718,9.522,0.971,-16.71647,17.82899,-6.81461
545,18.167,-2.351,9.687,1.082,-8.78429,20.29803,-6.02166
546,18.200,-1.402,10.220,1.296,2.02626,11.27306,-6.64958
547,18.233,-0.826,9.037,1.572,7.10735,-0.20432,-9.77455
548,18.267,-1.828,8.877,1.042,-1.25435,-1.06592,-13.18389
549,18.300,-2.570,9.459,0.495,-8.54419,0.42359,-10.09095
550,18.333,-2.248,9.727,0.197,-6.89199,3.76719,-11.28692
551,18.367,-1.488,8.935,0.114,-9.98505,0.96658,-12.34310
552,18.400,-0.919,9.483,0.093,-9.48657,-3.74377,-14.01169
553,18.433,-1.843,9.772,-0.150,-7.96101,-1.59114,-14.59463
554,18.467,-2.384,9.761,-0.263,-0.88649,4.96340,-18.86875
555,18.500,-2.737,10.262,0.069,2.66953,16.81288,-19.34138
556,18.533,-1.543,9.941,-0.255,2.55793,15.49480,-15.57980
557,18.567,-0.837,9.301,-0.389,-0.28753,10.90438,-18.31592
558,18.600,-0.742,9.692,-0.273,-2.34665,4.70097,-21.28445
559,18.633,-0.852,10.280,-0.095,6.77294,1.75345,-21.47716
560,18.667,-1.278,10.150,-0.025,13.76639,0.25202,-20.13781
561,18.700,-1.321,9.958,0.007,15.18541,-0.39052,-18.32139
562,18.733,-0.411,9.231,-0.171,6.46467,-2.36697,-17.81457
563,18.767,0.250,9.754,-0.339,2.73044,-7.75962,-17.22830
564,18.800,0.372,10.725,-0.533,6.98655,-12.35149,-20.72453
565,18.833,0.223,10.558,-0.735,14.13349,-12.14884,-27.32502
566,18.867,-0.704,10.128,0.195,13.63169,-8.57063,-29.96645
567,18.900,-1.286,10.369,1.026,15.91449,-6.05291,-28.12886
568,18.933,-0.405,9.807,1.520,17.34804,-0.30586,-34.46358
569,18.967,1.403,10.031,2.282,9.14860,-2.68857,-34.44137
570,19.000,2.479,11.197,2.641,15.85186,-1.16714,-40.22713
571,19.033,0.317,11.777,2.686,31.67874,-1.33463,-38.11925
572,19.067,-1.082,8.540,2.244,15.97318,13.04961,-26.83792
573,19.100,0.168,7.188,1.717,5.51905,17.78343,-2.37783
574,19.133,2.613,9.774,1.418,32.75188,0.36710,15.89171
575,19.167,4.836,12.316,1.958,37.88497,-9.09743,6.28555
576,19.200,1.886,9.972,1.437,12.29698,-3.89202,-6.79804
577,19.233,0.952,8.658,2.021,22.61815,-3.61220,10.23276
578,19.267,1.437,7.962,0.383,28.55199,-2.74478,16.39975
579,19.300,3.367,8.156,-1.065,26.07281,-15.40883,27.31606
580,19.333,4.260,6.479,-1.335,24.89677,-37.24470,38.37154
581,19.367,4.008,3.632,-0.959,15.11823,-73.94229,47.98790
582,19.400,3.318,3.852,-1.228,-41.32652,-89.14241,55.30198
583,19.433,-4.880,11.075,14.726,-189.48463,-48.04876,3.18255
584,19.467,-12.601,16.980,-3.878,51.60314,41.36267,2.63371
585,19.500,1.283,1.814,5.774,-32.95858,4.73219,72.25457
586,19.533,3.466,10.529,2.548,-50.76349,31.13058,16.28219
587,19.567,-3.622,12.710,3.475,-4.02646,25.66950,11.69525
588,19.600,-2.622,7.512,2.584,-15.80596,33.57278,11.42006
589,19.633,0.604,6.431,2.815,-9.20637,27.01805,-0.05937
590,19.667,-0.069,7.354,2.632,-10.20561,11.85139,1.68500
591,19.700,-1.625,9.528,3.141,-12.58911,19.56783,-2.88078
592,19.733,-1.476,8.158,3.021,-21.16197,29.45642,-7.30594
593,19.767,-0.117,9.026,2.417,-20.91639,22.57837,-13.54462
594,19.800,-1.091,10.654,2.302,-9.03782,4.93117,-9.58135
595,19.833,-1.754,10.775,2.456,-7.26858,4.73815,-7.48365
596,19.867,-1.610,9.587,2.171,-12.06133,11.48080,-7.36324
597,19.900,-1.178,9.765,1.905,-15.28437,16.11221,-7.32880
598,19.933,-0.778,9.981,1.643,-10.95559,15.64359,-11.04655
599,19.967,-0.427,9.542,1.530,-8.21025,7.89016,-14.16401
600,20.000,-0.576,9.754,1.494,-5.54000,1.28158,-12.82686
601,20.033,-0.832,9.793,1.377,-2.28018,-0.61081,-12.43291
602,20.067,-1.015,9.819,1.279,-5.17930,-2.37843,-9.14804
603,20.100,-1.271,9.713,1.072,-5.67416,-3.71620,-7.00429
604,20.133,-1.505,9.603,0.859,-9.09326,2.53569,-8.59633
605,20.167,-1.228,9.236,0.541,-9.19027,7.43313,-12.75817
606,20.200,-1.330,9.213,0.840,-7.22560,11.11238,-14.80892
607,20.233,-1.410,8.986,0.539,-6.92311,20.38307,-19.74822
608,20.267,-1.262,8.453,0.546,-14.70283,27.33463,-25.38081
609,20.300,-0.189,9.681,0.405,-23.48652,38.75872,-31.53459
610,20.333,1.930,11.187,0.253,-19.45705,38.05123,-26.73444
611,20.367,1.825,10.474,0.418,-11.96526,24.59098,-22.64429
612,20.400,1.492,10.204,0.575,-5.29721,14.23554,-21.89169
613,20.433,0.552,10.049,1.172,-1.72463,11.20689,-16.92172
614,20.467,0.535,10.399,1.322,0.01938,12.97612,-10.15075
615,20.500,1.258,9.963,0.997,1.38713,12.94214,-4.90605
616,20.533,1.489,9.763,0.737,-4.47331,13.12173,-6.75861
617,20.567,0.989,10.186,0.196,-9.75888,12.56904,-3.60346
618,20.600,0.425,9.890,0.096,-6.73371,15.43640,-3.16100
619,20.633,0.617,9.865,0.252,-5.55900,16.66853,-2.48606
620,20.667,0.896,9.793,0.012,-6.46242,18.32362,0.05406
621,20.700,1.248,9.940,0.151,-4.28582,18.13757,-0.91799
622,20.733,1.354,9.972,0.182,-3.18796,14.95295,-2.41001
623,20.767,1.382,10.175,0.300,-2.30602,11.27267,-2.50551
624,20.800,1.468,10.095,0.226,-1.26271,6.83670,-1.97159
625,20.833,1.241,10.103,0.340,1.04091,6.68686,-1.13724
626,20.867,0.906,9.814,0.080,1.57779,6.99785,-2.01277
627,20.900,0.770,9.741,0.003,-0.33870,8.37165,-3.75223
628,20.933,0.880,9.858,-0.113,-1.26370,9.35549,-0.63204
629,20.967,0.823,9.909,-0.082,-0.88939,11.11196,-0.21986
630,21.000,0.799,9.751,0.049,-0.53779,11.93886,-0.77168
631,21.033,0.799,9.935,0.259,-1.12907,13.15251,-1.35349
632,21.067,0.833,9.830,0.044,-1.33452,13.43566,-2.08971
633,21.100,0.878,10.040,0.118,-1.16225,15.07502,-2.75836
634,21.133,0.704,9.879,0.151,0.68348,17.21270,-3.76209
635,21.167,0.507,10.110,0.201,2.33737,22.17976,-4.95190
636,21.200,0.378,10.051,0.452,5.59394,26.14648,-5.23136
637,21.233,0.301,9.839,0.513,8.75625,32.50643,-3.93544
638,21.267,0.218,9.875,0.446,12.30263,41.64351,-1.27563
639,21.300,0.245,9.748,0.505,19.65680,48.76302,1.42599
640,21.333,0.445,9.332,0.294,16.59850,53.09710,5.82360
