frame_number,sync_timestamp,accel_x,accel_y,accel_z,gyro_x,gyro_y,gyro_z
0,0.000,-0.333,9.507,4.379,2.47328,8.52672,-2.54198
1,0.033,-0.270,9.224,4.069,2.17076,8.55830,-0.70594
2,0.067,0.090,8.947,4.311,5.16942,8.61118,-2.15858
3,0.100,0.191,9.247,4.510,5.33921,5.36455,-3.07300
4,0.133,0.218,8.711,4.342,4.98852,3.88229,-3.26817
5,0.167,0.102,8.689,4.160,3.01385,3.78376,-3.53609
6,0.200,-0.026,8.380,3.772,-0.71774,3.23612,-2.89616
7,0.233,0.104,8.646,3.696,-2.69724,2.32593,0.08349
8,0.267,-0.156,9.353,4.271,-2.05689,-1.44302,1.02409
9,0.300,-0.079,9.420,4.085,0.25870,-6.90628,-1.55841
10,0.333,-0.420,9.469,4.266,-2.51479,-6.46451,-4.40535
11,0.367,-0.218,9.893,4.015,-2.53232,-7.07487,-1.92481
12,0.400,-0.685,9.427,3.734,2.16103,-3.77815,0.69994
13,0.433,-0.531,8.947,4.038,4.72299,0.06523,1.16359
14,0.467,-0.071,8.347,3.739,2.35804,4.49147,-0.06398
15,0.500,0.272,8.342,3.920,-0.07276,13.13707,3.20370
16,0.533,0.403,9.664,3.640,4.25605,9.53757,11.83748
17,0.567,1.324,11.682,3.717,10.66139,3.25776,11.49074
18,0.600,2.247,12.059,4.342,15.86239,1.06618,-11.06636
19,0.633,0.822,9.658,3.811,12.83497,4.74034,-17.50279
20,0.667,0.277,9.147,3.121,16.50088,13.49157,-8.33273
21,0.700,0.636,9.130,2.757,36.22501,20.81255,2.73740
22,0.733,0.775,8.115,2.893,30.40284,7.43615,21.71518
23,0.767,2.626,7.622,2.099,9.28464,-17.91374,16.66930
24,0.800,2.757,6.399,1.213,-8.13921,-49.93000,17.20604
25,0.833,2.855,10.411,6.883,-24.43766,-25.02760,8.68164
26,0.867,-5.128,16.812,7.933,-6.25270,-34.41342,-31.71496
27,0.900,-4.413,8.517,3.306,14.35684,19.40288,-1.84142
28,0.933,0.346,7.213,5.923,-22.36685,-0.04495,11.12981
29,0.967,-1.450,7.395,3.865,-27.01249,3.76687,12.85941
30,1.000,-4.241,6.002,4.249,-26.30344,26.57012,14.44800
31,1.033,-3.249,6.222,4.428,-34.89391,39.42937,20.98250
32,1.067,-1.196,8.008,4.094,-39.76853,38.33344,15.92685
33,1.100,0.345,9.234,5.597,-25.22532,20.36983,7.96734
34,1.133,0.282,9.741,6.426,-13.94648,10.26849,-2.31489
35,1.167,-1.022,10.450,6.518,-5.55101,8.13254,1.99127
36,1.200,-1.355,12.037,5.253,4.68089,1.32900,5.29383
37,1.233,-1.310,11.167,4.642,25.51289,-3.14983,3.69646
38,1.267,-0.830,9.328,4.861,37.86961,-13.10686,-0.67252
39,1.300,-1.163,9.057,3.046,55.09279,-23.46722,-9.82998
40,1.333,-2.465,7.528,1.646,40.31839,-16.73096,-18.48198
41,1.367,-3.214,5.572,0.953,12.08900,2.42408,-16.51619
42,1.400,-3.563,5.747,1.481,-26.96094,29.00851,-17.91706
43,1.433,-3.074,8.752,3.068,-46.70261,61.02528,-16.49299
44,1.467,3.473,15.983,7.647,-13.51168,16.39535,10.08632
45,1.500,3.323,13.645,4.118,0.37449,-39.21415,9.13264
46,1.533,0.313,8.301,6.609,-16.11839,-40.46487,-25.22280
47,1.567,0.353,6.375,4.063,-24.99463,-27.32215,-27.74587
48,1.600,-1.403,5.154,4.212,1.16539,-15.66349,-8.63048
49,1.633,-0.485,6.386,4.812,-5.84761,-5.25858,-10.51917
50,1.667,-0.264,9.578,4.826,-1.21479,1.30638,-12.21209
51,1.700,0.984,11.187,5.466,-0.19555,-2.15628,0.08435
52,1.733,1.970,11.262,4.905,12.90746,-9.09570,5.21116
53,1.767,0.341,11.253,4.823,23.87382,-13.20431,-6.45610
54,1.800,-0.343,10.812,4.650,29.89378,0.66499,-8.15407
55,1.833,0.130,8.376,5.218,34.76471,19.85071,-1.81397
56,1.867,0.425,7.106,4.995,28.47313,20.05575,7.34918
57,1.900,1.364,6.946,3.894,23.79165,2.59164,14.25303
58,1.933,2.409,8.421,3.429,24.15137,-5.30429,20.62405
59,1.967,3.377,8.072,2.228,6.10070,-33.16896,26.52574
60,2.000,3.579,6.373,1.200,-11.64102,-61.54152,27.47600
61,2.033,1.047,9.189,6.349,-37.14703,-28.41153,6.89494
62,2.067,-10.377,19.278,4.750,-41.49955,-41.50552,-36.10179
63,2.100,-6.374,5.847,3.406,-0.02423,58.43031,4.54330
64,2.133,-0.502,8.790,8.716,-38.06847,27.36127,19.58681
65,2.167,-0.535,8.912,2.560,-21.15324,-19.82841,7.25179
66,2.200,-1.768,7.796,4.841,-48.70172,17.14158,-1.99364
67,2.233,-0.975,8.234,4.285,-49.05942,-7.34724,-3.37853
68,2.267,-1.533,8.449,5.015,-33.11690,5.13526,3.07782
69,2.300,-1.845,9.141,6.895,-24.71380,5.42770,3.53100
70,2.333,-1.701,9.433,6.317,-15.54851,2.32545,4.33875
71,2.367,-1.536,8.913,5.790,1.71603,-3.88821,4.13313
72,2.400,-1.027,8.123,5.516,13.60031,-8.39901,1.73871
73,2.433,-1.590,9.091,4.797,23.39276,-11.26319,-6.88176
74,2.467,-2.324,8.654,3.838,31.77204,-8.53753,-13.22196
75,2.500,-3.095,7.726,3.518,31.23578,-6.79341,-12.22082
76,2.533,-3.261,7.288,2.502,8.30172,7.73929,-6.80943
77,2.567,-3.418,6.721,0.616,-7.13899,24.38169,-20.63818
78,2.600,-2.616,7.062,-0.226,-24.83810,55.92513,-37.03478
79,2.633,3.256,14.801,7.519,3.36249,51.93360,4.48364
80,2.667,3.260,14.568,2.653,3.36871,-17.39326,5.69263
81,2.700,-0.822,10.441,3.061,-5.61637,-40.99623,-29.76991
82,2.733,-0.235,8.828,6.646,-22.93855,-21.50215,-22.16243
83,2.767,-0.852,8.189,3.913,7.47813,-6.49104,-4.14945
84,2.800,0.316,6.672,5.815,-0.52803,12.24917,-11.87301
85,2.833,0.837,7.559,5.406,-3.34480,0.42236,-14.42115
86,2.867,0.736,7.645,5.259,-6.37548,3.79696,-6.56568
87,2.900,0.819,8.627,6.013,4.98478,-7.31537,-1.89028
88,2.933,0.849,9.706,7.236,13.73913,-7.63843,-1.49514
89,2.967,0.877,11.347,5.328,15.22205,-4.09375,-8.90832
90,3.000,0.423,10.296,4.133,17.80345,0.15052,-6.75785
91,3.033,0.883,8.963,3.612,19.82126,4.77988,6.55150
92,3.067,1.130,8.110,3.386,25.64829,5.61043,16.88678
93,3.100,2.034,8.138,2.687,25.80836,-4.53060,23.52765
94,3.133,2.493,7.614,1.135,17.21926,-23.98412,39.95995
95,3.167,2.901,6.200,-0.171,-9.31043,-68.69970,50.78536
96,3.200,2.457,7.252,3.600,-45.99796,-66.86539,40.14020
97,3.233,-12.880,19.530,14.243,-33.61454,-24.80217,-32.44318
98,3.267,-6.399,6.764,-0.180,-11.69608,75.16593,33.25570
99,3.300,-2.752,5.351,14.515,-6.92114,42.75720,25.38524
100,3.333,-1.025,8.293,4.959,-27.26328,12.80823,5.59421
101,3.367,-2.017,6.750,5.806,-7.34336,32.36399,7.29055
102,3.400,-1.053,5.952,5.396,-12.05804,24.24305,2.76775
103,3.433,-1.469,6.064,4.954,-13.96891,18.70153,5.60657
104,3.467,-0.134,8.085,5.349,-12.95385,9.11800,-5.75543
105,3.500,-0.947,10.920,5.470,-1.00735,-8.75509,-10.27400
106,3.533,-0.852,11.543,5.072,7.79250,-23.63243,-13.41380
107,3.567,-1.620,9.920,4.608,20.09644,-34.48740,-13.22451
108,3.600,-2.843,8.670,4.519,18.27906,-34.00801,-11.23499
109,3.633,-2.724,7.721,3.919,13.18255,-19.89955,-12.53899
110,3.667,-3.362,6.426,3.660,15.03397,-8.17729,-11.43306
111,3.700,-3.468,5.753,2.840,-11.25866,12.78638,-19.82402
112,3.733,-2.951,5.951,1.689,-38.33190,41.15307,-30.16947
113,3.767,-2.926,7.346,1.439,-42.03730,67.82548,-38.72914
114,3.800,-0.038,15.728,8.638,-5.05587,66.70510,-2.28507
115,3.833,2.470,15.091,3.750,-31.77847,6.33739,-1.14723
116,3.867,0.549,10.756,5.012,-22.84366,-5.07579,-24.01542
117,3.900,1.051,9.041,5.564,-3.10650,-11.23188,-13.04732
118,3.933,0.952,7.868,4.701,2.12020,4.69116,-8.66508
119,3.967,1.154,6.634,5.281,0.87587,-9.73011,-1.79945
120,4.000,0.841,7.600,5.382,-6.66388,-11.12703,-2.15695
121,4.033,0.956,8.287,5.546,-6.16985,-12.70728,-3.88279
122,4.067,1.202,7.542,5.348,-3.48290,-9.05424,-2.52111
123,4.100,0.262,8.336,4.995,-5.52750,-12.18569,-2.19037
124,4.133,0.394,10.483,4.415,-3.08988,-3.06219,4.97176
125,4.167,1.418,11.404,3.756,10.89223,-6.74051,11.42301
126,4.200,1.768,10.198,3.587,19.21034,-9.82618,8.08066
127,4.233,1.119,8.271,4.069,5.69087,-15.40193,6.20312
128,4.267,0.971,7.201,3.060,-5.63238,-22.20355,10.62850
129,4.300,0.686,7.706,0.505,-23.33586,-22.13175,19.08632
130,4.333,1.280,7.320,0.014,-20.26719,-34.02551,34.34479
131,4.367,-0.839,12.183,7.381,-8.42769,5.46858,11.30302
132,4.400,-5.701,15.431,4.024,-22.69110,-16.31159,-10.54649
133,4.433,-1.891,7.754,3.088,-2.13025,52.40330,7.93498
134,4.467,-0.187,9.947,7.442,-5.32222,19.42459,14.96323
135,4.500,-0.821,8.662,4.653,4.04013,-2.97164,15.04541
136,4.533,-1.585,6.719,5.750,-0.35931,6.53977,10.05250
137,4.567,-1.607,7.327,4.734,-18.83866,5.75951,1.73255
138,4.600,-2.067,8.986,3.956,-13.93657,9.45833,-1.64166
139,4.633,-1.353,8.933,5.096,2.03380,6.07255,-0.24407
140,4.667,-0.939,9.234,5.731,-1.22658,-7.48525,-3.08520
141,4.700,-0.727,9.810,4.345,8.89506,-14.66038,-6.58549
142,4.733,-1.227,10.057,3.432,20.85667,-18.01567,-10.11392
143,4.767,-2.549,9.862,3.025,29.13426,-14.69752,-12.59957
144,4.800,-2.952,9.195,2.322,37.73727,-7.76029,-16.08562
145,4.833,-3.468,7.261,2.925,28.12252,8.74034,-20.64215
146,4.867,-2.836,5.803,0.932,-3.22797,12.73848,-21.24915
147,4.900,-2.896,5.872,-0.054,-27.64668,30.07331,-22.13368
148,4.933,-1.791,9.227,4.105,-52.16005,74.04285,-25.36077
149,4.967,5.487,19.503,6.997,-2.02776,-26.94805,18.69230
150,5.000,1.918,9.671,2.673,6.21520,-45.91625,-16.08502
151,5.033,-1.458,9.221,6.346,-24.71475,-24.63640,-18.17232
152,5.067,-1.062,8.864,4.583,1.39139,-12.83913,-10.55178
153,5.100,0.273,6.995,5.675,2.82411,-0.72075,-6.33407
154,5.133,0.136,5.869,6.166,7.74497,-5.58956,-2.32444
155,5.167,0.624,8.481,6.017,4.03998,2.67778,0.42898
156,5.200,1.910,10.745,6.429,11.58496,-3.80875,-0.21733
157,5.233,0.291,9.030,6.088,13.14189,-8.09383,-8.52227
158,5.267,-0.918,9.034,5.673,10.72897,0.93341,-9.31544
159,5.300,-0.331,9.763,4.114,13.80041,10.32764,2.79584
160,5.333,0.720,9.559,3.402,17.90097,9.67941,10.63038
161,5.367,1.951,9.696,2.339,37.25835,2.15228,12.74489
162,5.400,2.007,9.003,0.654,43.02926,-10.62229,19.00682
163,5.433,2.057,7.255,0.567,20.53546,-30.23320,25.14922
164,5.467,1.853,6.388,-0.379,-20.22281,-59.84772,25.90159
165,5.500,0.851,9.384,4.500,-66.95082,-11.85007,6.72807
166,5.533,-9.605,17.058,7.441,-59.10783,-25.94050,-40.71608
167,5.567,-3.387,4.994,2.766,-29.83127,64.45705,-9.59928
168,5.600,-0.619,9.301,10.474,-52.77752,24.00450,14.89104
169,5.633,-0.940,11.142,5.270,-30.24548,9.23607,11.83546
170,5.667,-1.496,7.677,6.380,-9.90956,15.06597,7.83148
171,5.700,-1.747,7.134,6.792,-24.36453,13.80071,3.46107
172,5.733,-0.533,8.265,4.399,-7.38197,9.89114,6.08774
173,5.767,-0.187,9.052,4.807,11.66971,4.73977,-2.58024
174,5.800,-1.067,10.273,4.504,24.56270,-8.74811,-6.69582
175,5.833,-1.010,10.365,3.728,29.79150,-14.22513,-6.71020
176,5.867,-1.340,9.678,3.466,28.31218,-15.29869,-5.48443
177,5.900,-2.090,10.054,3.589,32.07672,-14.98336,-6.64222
178,5.933,-2.985,8.281,3.287,33.51727,-4.13314,-7.44788
179,5.967,-2.793,7.000,3.618,25.31272,14.73386,-11.16534
180,6.000,-2.255,4.981,2.513,15.81557,13.62012,-17.36071
181,6.033,-3.373,3.980,1.240,-21.84025,24.23688,-28.01319
182,6.067,-1.439,8.303,4.167,-53.21610,79.69130,-20.44593
183,6.100,9.784,19.456,7.258,9.79353,-36.21666,21.82926
184,6.133,3.116,10.392,5.969,-8.97886,-46.02276,-22.27658
185,6.167,-1.945,10.421,6.136,-23.90852,-12.91794,-20.57137
186,6.200,-0.095,10.335,3.711,-11.52682,-3.64953,-13.53544
187,6.233,0.625,8.069,4.666,-10.50271,3.04074,-7.96569
188,6.267,0.597,5.566,5.050,-16.37051,0.36580,-7.13395
189,6.300,0.691,6.539,4.796,-10.07280,5.59195,2.35584
190,6.333,1.787,9.553,6.257,-2.85675,0.13625,4.64252
191,6.367,1.269,10.345,5.394,-7.68328,-2.91531,-3.40933
192,6.400,0.304,9.080,5.239,2.28695,-3.14171,-7.69245
193,6.433,0.623,9.942,3.973,7.87008,0.23451,-1.99213
194,6.467,0.870,10.281,3.185,25.69159,4.76975,9.70753
195,6.500,1.718,9.496,3.262,31.72990,-3.17108,14.76375
196,6.533,2.448,8.386,2.935,24.54371,-17.49332,15.23009
197,6.567,2.466,7.602,1.953,12.60618,-38.89067,16.34470
198,6.600,1.897,7.576,0.386,-4.24685,-57.01710,24.99999
199,6.633,0.840,8.137,1.169,-6.13179,-61.29623,28.60963
200,6.667,-8.476,17.952,9.372,-9.07066,-13.67489,-22.16891
201,6.700,-5.046,7.746,2.060,-9.97394,38.89337,4.74831
202,6.733,-1.265,6.843,6.034,-2.16406,37.40194,15.90030
203,6.767,-1.353,9.717,5.458,-27.50773,13.83124,11.50705
204,6.800,-1.494,7.983,5.393,4.51686,23.98647,11.95348
205,6.833,-1.645,6.695,7.263,-14.39634,17.35315,12.45214
206,6.867,-0.816,7.425,5.179,-19.11861,11.12703,7.09947
207,6.900,-1.043,8.690,5.579,-0.09049,11.43963,-2.41489
208,6.933,-1.770,9.986,5.346,8.73543,-0.03312,-3.81781
209,6.967,-0.805,9.844,4.364,18.28601,-3.38291,-3.29218
210,7.000,-1.390,9.377,4.162,17.68669,-16.73050,-1.00016
211,7.033,-1.567,9.103,3.617,15.66293,-19.85722,-2.24086
212,7.067,-1.891,9.100,3.435,13.82712,-15.47456,-8.75356
213,7.100,-2.689,8.066,3.086,14.36656,-13.68111,-16.02265
214,7.133,-3.070,6.847,2.738,15.54566,-5.27068,-22.32385
215,7.167,-2.492,5.416,1.160,-10.55672,13.03519,-25.84686
216,7.200,-2.890,5.021,0.506,-35.30285,32.58865,-21.94757
217,7.233,-3.158,9.192,5.509,-37.43815,91.17036,-14.38452
218,7.267,7.942,19.611,5.547,-18.00421,-14.42521,27.58031
219,7.300,-0.005,9.648,7.366,9.83242,-38.33765,-24.62365
220,7.333,-1.108,10.823,6.863,-18.60258,-11.84539,-26.50262
221,7.367,-0.037,8.905,4.309,-7.15100,5.89452,-20.74672
222,7.400,0.819,5.773,4.173,3.82488,1.59957,-16.75153
223,7.433,0.350,3.948,4.985,-9.59697,-3.44419,-6.18325
224,7.467,0.453,6.931,5.419,-4.34957,8.58043,6.71906
225,7.500,1.275,11.185,6.083,5.02403,-2.32644,3.04245
226,7.533,0.923,9.848,4.835,8.87618,-8.76733,-11.13543
227,7.567,-0.091,10.674,5.161,0.96030,-3.77661,-12.15345
228,7.600,0.313,11.711,2.654,15.13315,5.34504,3.56018
229,7.633,0.245,10.136,3.060,31.63241,15.24467,13.49247
230,7.667,2.122,8.286,3.479,27.99251,12.00471,12.98355
231,7.700,1.906,7.137,2.781,13.54375,1.50241,14.80900
232,7.733,1.769,5.965,2.530,-1.23849,-13.59057,18.08752
233,7.767,1.915,5.085,1.847,-30.81303,-31.63215,19.89838
234,7.800,2.254,6.348,5.321,-44.77442,-16.20680,13.20735
235,7.833,-8.341,19.298,10.285,-19.98231,-39.36418,-21.00503
236,7.867,-4.512,9.974,1.961,-10.97136,17.63165,11.76906
237,7.900,-1.078,12.823,6.438,11.49277,15.83808,9.22051
238,7.933,-0.715,9.826,5.312,11.51636,-5.07113,10.53185
239,7.967,-1.836,8.057,5.203,-3.48215,-11.44482,8.78343
240,8.000,-2.431,7.377,3.715,-12.57733,1.30383,5.38763
241,8.033,-1.823,7.299,4.159,-10.74602,5.63293,6.99570
242,8.067,-1.237,7.469,5.950,-1.92352,4.35261,5.53781
243,8.100,-0.886,7.887,6.400,2.22431,-12.55353,4.94408
244,8.133,-0.662,8.245,5.720,-0.22011,-18.33268,-1.39102
245,8.167,-1.427,8.807,5.087,5.49725,-15.44852,-9.86075
246,8.200,-2.389,9.279,4.413,16.51562,-11.22344,-11.48800
247,8.233,-2.807,8.900,3.972,20.67191,-4.79819,-11.32077
248,8.267,-3.096,7.942,3.340,15.93807,4.84466,-10.14500
249,8.300,-2.711,8.422,2.370,10.91893,16.17695,-13.33082
250,8.333,-1.707,7.827,0.538,7.14611,16.01962,-21.53240
251,8.367,-2.158,5.654,-0.512,-12.54630,30.06523,-19.50586
252,8.400,-3.744,8.444,5.593,-43.08384,95.83622,-19.64672
253,8.433,10.164,19.387,6.757,4.28044,-36.76929,46.41161
254,8.467,5.173,6.177,7.284,12.61500,-50.45371,-14.02230
255,8.500,-1.210,8.803,9.600,-37.57652,-7.82574,-30.01194
256,8.533,-0.243,7.689,5.502,-6.25383,-2.88659,-18.39615
257,8.567,0.267,7.130,4.525,17.85324,-8.35624,-11.42027
258,8.600,0.090,4.528,6.021,7.65326,0.76324,-9.69858
259,8.633,0.987,6.327,6.091,-7.84607,3.75217,-2.71539
260,8.667,1.812,9.169,6.268,5.12755,-5.36706,4.61516
261,8.700,0.760,10.237,5.953,5.22894,-10.75721,-1.42546
262,8.733,-1.188,10.575,4.698,9.16473,-1.50993,-7.52605
263,8.767,-0.228,10.191,4.286,18.98931,12.03854,4.15365
264,8.800,0.603,9.436,4.700,14.75429,13.76521,11.50584
265,8.833,0.387,8.908,3.752,26.16345,12.76033,11.82861
266,8.867,1.552,9.128,2.513,26.96510,11.66574,13.08622
267,8.900,2.613,8.701,1.290,32.42271,-3.21513,22.09720
268,8.933,2.563,6.748,0.701,14.02257,-29.62088,35.38772
269,8.967,2.290,6.210,1.157,-43.64510,-61.55504,33.37906
270,9.000,-2.879,15.129,11.452,-22.79255,32.27585,-3.16654
271,9.033,-7.028,12.861,3.718,-47.73936,16.31150,-19.18178
272,9.067,-2.843,7.035,4.022,-13.51059,55.86757,0.12622
273,9.100,-0.420,9.921,8.491,-29.82871,7.86703,26.19208
274,9.133,-0.146,9.017,4.577,-18.42157,5.71774,7.06754
275,9.167,-0.977,7.261,6.319,-8.33883,13.04878,-1.55834
276,9.200,-2.291,8.041,5.182,-27.23384,8.06091,-1.34280
277,9.233,-2.287,8.368,4.223,-5.72332,8.76689,8.52741
278,9.267,-0.753,7.733,5.873,-7.29012,4.74619,-0.18099
279,9.300,-0.340,10.640,4.511,3.86242,-6.35590,-5.31944
280,9.333,-1.578,10.038,3.569,26.34355,-10.97002,-6.31260
281,9.367,-2.924,8.404,3.879,23.91915,-7.77491,-1.23855
282,9.400,-2.772,8.805,2.681,22.74952,4.92197,-5.17823
283,9.433,-2.029,7.946,2.422,24.68780,7.67429,-13.44363
284,9.467,-1.824,6.172,1.556,4.93266,3.58349,-19.78470
285,9.500,-3.007,5.948,0.402,-21.46475,17.71529,-20.83346
286,9.533,-3.278,7.958,6.295,-15.78791,84.60725,-8.10748
287,9.567,9.628,19.613,10.012,-8.50363,-36.95660,41.32022
288,9.600,1.712,9.430,4.530,0.96225,-44.85152,-28.81593
289,9.633,-1.021,10.193,6.259,-29.95463,-18.40977,-18.55442
290,9.667,-0.229,9.566,4.407,4.67864,2.02815,-7.62754
291,9.700,0.893,6.637,5.780,2.31508,3.20157,-9.40605
292,9.733,0.855,5.731,5.465,-12.55226,-3.93124,-9.21946
293,9.767,1.111,6.999,5.276,-7.27628,-1.43705,-5.96491
294,9.800,1.094,7.257,5.286,-2.24470,-6.49538,-1.52974
295,9.833,-0.262,9.100,5.204,1.17805,-6.87071,-4.53218
296,9.867,-0.306,11.206,4.842,8.74544,-1.07609,-3.08532
297,9.900,0.547,11.043,3.977,15.56047,0.48353,4.36602
298,9.933,0.821,10.328,3.754,21.82475,4.88813,2.66315
299,9.967,0.593,9.041,3.961,21.68397,2.10829,6.81260
300,10.000,1.248,7.989,3.509,15.96972,-3.71140,11.67737
301,10.033,1.433,6.932,2.946,1.64620,-17.56715,17.17096
302,10.067,1.455,6.628,1.678,-17.68290,-26.59910,22.21834
303,10.100,1.646,6.097,0.217,-28.73195,-42.87332,32.94532
304,10.133,-1.450,10.790,6.232,-30.01467,-4.76542,21.46239
305,10.167,-8.027,17.092,6.904,-38.81976,-24.53602,-9.52787
306,10.200,-1.798,9.786,3.145,-12.97512,33.78288,8.41926
307,10.233,-0.324,11.413,8.495,-10.94106,16.72341,13.86863
308,10.267,-1.690,8.534,5.735,-3.74053,6.81307,13.24611
309,10.300,-2.022,6.480,6.043,-8.81421,23.85018,9.46191
310,10.333,-1.543,6.047,4.749,-26.14702,14.78143,3.57029
311,10.367,-0.963,7.099,4.090,-8.09390,14.45200,4.25683
312,10.400,-0.185,8.058,4.952,-2.93424,-2.18494,-0.79847
313,10.433,-1.409,10.013,3.996,12.67650,-11.97127,-9.35347
314,10.467,-2.028,10.810,3.668,14.95990,-10.73364,-19.67796
315,10.500,-2.799,9.503,4.191,16.33559,-8.61417,-13.90590
316,10.533,-2.335,9.131,3.588,7.97043,-7.86754,-11.37232
317,10.567,-1.965,9.231,3.408,15.50668,-13.68727,-17.33915
318,10.600,-1.618,7.512,3.460,14.23435,-16.65642,-26.09510
319,10.633,-2.125,5.428,3.300,0.82778,-18.53556,-25.94988
320,10.667,-2.491,4.164,1.380,-22.86021,-9.51384,-18.93511
321,10.700,-3.619,5.868,0.389,-27.42121,41.47195,-30.01567
322,10.733,4.045,17.562,8.901,9.18583,18.05738,5.74800
323,10.767,-1.428,13.910,2.472,-8.85492,-12.92228,-11.34203
324,10.800,-1.454,12.324,5.510,-22.02636,-11.53877,-11.60401
325,10.833,0.586,11.454,4.923,-6.49688,-1.18882,-8.19025
326,10.867,1.832,8.544,3.860,-11.52539,7.15365,-10.02991
327,10.900,1.307,7.417,5.904,-9.80870,-6.70850,-14.00919
328,10.933,-0.263,6.750,5.328,-10.35821,0.16978,-8.70911
329,10.967,0.274,6.960,5.550,2.76814,9.92017,1.04105
330,11.000,0.868,8.212,5.309,6.98602,3.46139,6.99711
331,11.033,0.299,9.363,4.695,7.16280,0.56436,4.37366
332,11.067,0.780,10.279,4.179,13.66048,-2.93887,2.32658
333,11.100,1.100,10.453,3.016,22.74736,2.13817,0.91522
334,11.133,1.187,9.821,2.437,26.42947,-0.03395,6.64896
335,11.167,1.583,9.448,1.932,24.31707,-11.34178,9.99101
336,11.200,1.771,7.846,0.962,17.90059,-31.43892,13.68345
337,11.233,1.985,6.929,0.697,2.43860,-47.37736,12.69891
338,11.267,-0.199,9.386,7.435,6.78712,-7.12306,-4.18964
339,11.300,-6.081,12.933,5.505,-13.25080,-26.65642,-27.83783
340,11.333,-3.746,8.835,3.261,-1.72432,31.97284,-2.62741
341,11.367,-1.122,11.514,6.255,1.76118,19.63341,11.95775
342,11.400,-0.859,8.939,5.764,3.10079,8.35639,9.02983
343,11.433,-0.928,8.618,5.717,-4.13621,3.62812,3.42829
344,11.467,-1.419,8.628,5.106,-6.71184,-2.60206,1.07655
345,11.500,-1.176,7.705,5.907,4.33349,1.57133,2.80195
346,11.533,-0.956,7.866,6.631,-3.27310,-3.44162,4.26015
347,11.567,-1.030,7.727,5.561,0.44003,-12.49038,1.95756
348,11.600,-0.681,8.646,4.416,9.08000,-12.96408,-1.19219
349,11.633,-1.581,8.885,3.932,18.84427,-7.83706,-10.14581
350,11.667,-2.944,8.692,3.880,22.76965,-4.72651,-15.01479
351,11.700,-3.073,8.115,3.113,17.23598,7.15092,-14.21086
352,11.733,-2.898,7.741,2.191,7.80679,21.60258,-16.44910
353,11.767,-2.490,6.882,0.813,-12.67574,26.54766,-17.78004
354,11.800,-2.960,5.751,0.953,-20.04153,55.09190,-25.51060
355,11.833,3.994,15.814,10.785,-6.90520,61.67251,1.18321
356,11.867,1.349,12.811,4.157,-21.07950,20.39629,4.69292
357,11.900,-1.941,10.806,6.758,-33.78561,8.08928,-13.15160
358,11.933,-0.360,11.216,6.227,-25.36159,-3.50188,-3.73061
359,11.967,1.529,7.386,5.539,-13.91131,22.53076,-8.36228
360,12.000,2.148,6.633,6.131,-14.15905,-3.96290,-2.44299
361,12.033,2.675,7.584,5.043,-13.71009,-5.46446,-4.29956
362,12.067,1.472,7.883,5.731,-6.25136,-15.11417,-4.03122
363,12.100,0.678,8.463,5.127,-0.53914,-12.09899,-1.59955
364,12.133,-0.154,9.632,4.987,6.41564,-13.52432,-1.43812
365,12.167,0.728,10.100,4.415,15.01323,-4.14208,8.92193
366,12.200,1.442,9.906,4.597,24.43341,-6.77805,12.78276
367,12.233,1.877,9.915,3.793,33.59003,-6.60511,3.11283
368,12.267,1.469,10.098,2.830,33.42070,-12.94635,0.58921
369,12.300,0.997,8.422,3.312,33.51395,-17.54424,4.51474
370,12.333,0.969,6.838,3.209,10.45947,-36.42166,4.85371
371,12.367,1.139,6.378,1.180,-2.88610,-38.79653,10.16094
372,12.400,1.769,7.697,1.711,-17.32167,-43.79754,19.85915
373,12.433,-5.123,15.381,11.881,4.63701,-12.82664,-6.65125
374,12.467,-4.755,8.554,2.146,-19.32316,-16.09950,12.31827
375,12.500,-0.628,9.197,4.238,-18.91246,21.16853,18.34733
376,12.533,-1.731,10.805,5.799,-22.06760,-2.10601,10.08385
377,12.567,-1.838,8.854,5.475,-2.33872,-5.44552,4.01938
378,12.600,-1.947,8.095,6.513,-15.33735,-3.07696,4.09011
379,12.633,-1.412,8.421,5.385,-9.45366,-2.42064,6.15164
380,12.667,-1.776,7.708,6.415,-3.49474,-0.86797,4.92004
381,12.700,-1.795,7.746,6.219,-3.17905,-2.75231,4.91932
382,12.733,-1.426,8.342,5.471,7.93369,-6.87978,0.67272
383,12.767,-1.627,8.809,4.947,8.91301,-9.29585,-1.81494
384,12.800,-2.284,8.399,2.934,14.19304,-7.84317,-10.40497
385,12.833,-2.785,8.090,2.276,25.74290,-0.25517,-17.50428
386,12.867,-2.845,8.204,2.134,21.33808,11.33477,-28.29660
387,12.900,-2.204,6.706,0.844,-6.80404,15.52091,-30.48566
388,12.933,-3.181,5.425,0.702,-28.74138,38.49919,-18.25771
389,12.967,-2.965,10.347,9.011,-34.50481,86.15503,-2.96324
390,13.000,4.239,17.444,6.135,-26.22281,-24.22003,37.82959
391,13.033,-0.794,8.209,7.156,2.07914,-25.22152,-24.29694
392,13.067,-0.794,11.569,6.681,-18.30100,-0.89982,-17.09348
393,13.100,-0.375,9.484,3.249,8.43987,9.34712,-12.22090
394,13.133,0.953,6.471,4.951,25.46281,0.45871,-3.62051
395,13.167,1.449,5.884,4.870,-7.36422,4.66380,-8.07479
396,13.200,1.944,7.692,4.273,-0.92166,1.00040,-10.86831
397,13.233,0.874,8.022,5.387,-4.20924,-3.02610,-7.48412
398,13.267,-0.483,8.342,5.751,-6.57820,3.40219,-3.13698
399,13.300,-0.316,10.442,5.490,-7.22134,8.67551,-2.57773
400,13.333,0.286,10.388,5.308,2.54890,9.32163,-0.76125
401,13.367,0.361,9.412,5.183,7.98994,14.97868,2.27372
402,13.400,0.705,9.558,4.524,15.78882,11.77854,1.74090
403,13.433,1.460,9.453,3.334,23.54997,7.71107,4.93261
404,13.467,1.758,9.361,1.901,35.19535,0.87988,12.39376
405,13.500,1.657,8.383,1.324,33.98934,-4.18065,26.94997
406,13.533,1.793,7.131,0.894,21.91556,-23.24403,37.07299
407,13.567,2.005,6.865,1.247,-5.67484,-49.36684,34.29467
408,13.600,-2.088,15.096,15.477,-11.86613,13.55905,-7.92191
409,13.633,-6.310,10.918,2.390,1.98824,-40.12639,-22.59089
410,13.667,-2.028,7.211,11.170,-4.19451,15.25586,3.23524
411,13.700,-1.963,10.184,5.991,-23.74517,-6.76282,8.68494
412,13.733,-2.978,7.484,6.556,3.76221,-0.73638,17.03729
413,13.767,-1.980,5.845,5.491,-22.67409,5.77182,10.99660
414,13.800,-2.029,7.337,4.121,-12.46104,9.36878,8.76199
415,13.833,-1.277,8.900,4.604,7.69300,2.87083,4.15129
416,13.867,-0.917,8.971,5.784,16.49668,-10.53392,0.94983
417,13.900,-1.292,8.836,5.982,15.52637,-17.82883,-3.50279
418,13.933,-1.983,9.330,4.614,12.12046,-18.48160,-7.46512
419,13.967,-2.764,9.007,4.216,18.54467,-14.01262,-4.11794
420,14.000,-3.188,7.904,4.454,17.96240,-2.72849,-4.28527
421,14.033,-2.583,6.338,4.369,4.68336,12.69419,-10.23550
422,14.067,-2.050,5.421,3.139,-16.92433,28.09885,-13.91061
423,14.100,-2.892,5.703,1.280,-28.03094,35.30797,-18.30228
424,14.133,-3.457,6.054,0.675,-40.34428,66.87002,-29.62174
425,14.167,4.377,18.497,13.329,23.44147,53.50507,2.60448
426,14.200,2.114,15.004,0.856,-1.36394,-10.81128,-12.65022
427,14.233,-1.389,11.953,3.553,-3.95826,-3.60222,-38.23064
428,14.267,-1.160,8.851,3.350,-39.00497,4.42077,-15.81764
429,14.300,0.621,6.929,4.140,-14.31819,33.76868,-5.59830
430,14.333,1.848,6.300,6.566,-18.81835,9.91842,-2.22248
431,14.367,2.217,7.465,4.307,-25.80942,-3.54056,-3.37405
432,14.400,0.791,7.872,5.717,-15.01976,-4.83887,2.70787
433,14.433,0.490,8.431,6.731,3.67547,-2.55039,0.79837
434,14.467,0.683,10.201,7.035,5.33772,-4.78990,-4.67481
435,14.500,0.108,10.158,5.343,-0.03006,-2.62460,-2.24345
436,14.533,0.160,10.378,5.109,14.18272,2.32032,5.93971
437,14.567,1.487,10.411,4.308,23.66897,3.04500,5.52067
438,14.600,1.770,8.969,3.342,29.43239,-1.92534,6.71935
439,14.633,2.278,7.909,2.010,39.36080,-8.46843,14.84903
440,14.667,2.367,6.017,1.160,36.24446,-32.64963,17.37942
441,14.700,3.648,4.724,1.402,-18.24853,-64.50232,25.99508
442,14.733,-10.418,17.966,16.123,-5.01142,16.32521,-26.05096
443,14.767,-1.691,11.855,0.555,-25.78117,4.56678,5.69618
444,14.800,-2.771,12.142,2.208,14.10624,52.64855,8.97884
445,14.833,-2.139,8.250,6.293,-15.46371,-6.65082,15.75010
446,14.867,-1.239,6.699,3.399,-2.35778,10.46908,14.42823
447,14.900,-0.963,5.937,5.408,-10.02510,6.84210,12.19145
448,14.933,-1.112,5.868,5.225,-9.59930,2.83541,11.09418
449,14.967,-1.533,7.394,6.617,-4.09549,1.00132,2.49527
450,15.000,-1.260,8.725,5.679,-8.19206,-4.67707,-0.45491
451,15.033,-1.242,8.983,4.604,0.46702,-10.43276,3.36989
452,15.067,-1.805,9.830,3.400,9.75066,-6.18480,-3.23564
453,15.100,-2.184,10.842,3.485,19.02812,-5.27975,-16.24356
454,15.133,-2.539,8.902,3.336,21.90482,0.19982,-21.06339
455,15.167,-2.535,7.099,3.163,6.06806,6.66885,-12.20727
456,15.200,-2.290,5.465,2.744,-15.29281,8.41853,-10.59636
457,15.233,-2.074,4.915,1.892,-41.06594,19.82090,-11.50157
458,15.267,-2.673,6.931,2.231,-51.39870,54.42841,-33.00438
459,15.300,10.643,19.613,12.113,18.16956,-15.86910,10.82822
460,15.333,0.684,12.511,4.301,-0.44576,-6.68284,-10.94061
461,15.367,-3.163,11.429,5.681,-25.96695,-8.01761,-23.80053
462,15.400,-0.151,10.585,4.160,-0.69733,2.24808,-15.07893
463,15.433,1.631,7.286,4.343,4.99820,11.28893,-10.93561
464,15.467,2.143,6.568,5.169,0.47038,-1.12966,-12.85518
465,15.500,0.792,8.124,4.550,-14.89861,-5.16426,-13.39083
466,15.533,-0.055,7.924,5.060,-5.91973,-4.88152,-3.63510
467,15.567,-0.427,8.172,5.218,-1.17864,6.21120,-0.18402
468,15.600,0.416,9.665,5.350,-2.83070,7.32550,-3.81605
469,15.633,1.375,10.809,4.528,-7.90161,5.48045,-3.21949
470,15.667,1.532,10.850,3.684,1.34915,5.83385,-0.16251
471,15.700,0.893,9.535,3.448,11.20051,3.63491,5.30162
472,15.733,1.115,7.874,2.989,12.36716,8.41863,11.81360
473,15.767,1.390,6.608,3.518,0.01135,2.89109,15.36284
474,15.800,2.299,5.993,2.570,-17.56905,-5.99339,11.91527
475,15.833,2.681,7.035,1.455,-37.65317,-40.95572,23.47401
476,15.867,2.195,8.875,0.549,-22.11433,-42.34026,26.60902
477,15.900,-7.933,19.037,11.559,-16.48578,28.85347,-14.81966
478,15.933,-5.275,9.807,3.246,-0.42564,18.97250,11.33882
479,15.967,-0.440,11.337,5.723,12.10836,42.97419,22.32621
480,16.000,0.155,10.284,5.624,-9.59903,17.58872,13.15550
481,16.033,-0.537,6.619,5.047,-1.60151,9.05424,14.10491
482,16.067,-0.856,6.003,4.525,-20.06089,6.47565,11.22494
483,16.100,-0.531,7.652,5.054,-10.93692,14.44826,2.95755
484,16.133,-0.594,8.930,5.420,-5.31745,-4.19833,-6.40582
485,16.167,-0.982,9.214,4.868,0.61647,-11.42610,-4.61457
486,16.200,-1.280,9.914,4.253,9.78987,-12.59481,-0.13529
487,16.233,-1.601,10.396,4.237,18.60950,-16.02236,-5.79669
488,16.267,-1.680,9.905,3.927,25.62547,-16.62425,-12.81972
489,16.300,-2.201,9.199,3.444,31.18079,-15.39949,-10.19797
490,16.333,-2.552,9.012,2.875,42.04161,-14.81518,-11.78422
491,16.367,-2.555,7.459,1.888,36.49743,-6.39201,-19.55914
492,16.400,-2.564,6.464,1.795,15.63054,3.75760,-20.12066
493,16.433,-2.815,6.809,1.311,-14.81862,25.30556,-19.11406
494,16.467,-3.119,8.347,2.841,-32.46332,54.92715,-20.52836
495,16.500,4.644,17.262,8.054,-6.93366,29.23532,8.74538
496,16.533,3.478,11.564,5.097,3.98902,-25.33396,19.75305
497,16.567,-1.993,9.696,7.407,-17.21306,-23.24018,-21.72282
498,16.600,-0.035,8.869,5.822,-11.20365,-18.02752,-30.00874
499,16.633,-0.577,6.179,4.797,-3.35685,5.82880,-10.28394
500,16.667,0.539,6.751,5.547,1.61280,-4.02400,-6.78018
501,16.700,1.166,9.225,4.264,6.68557,3.99829,0.75373
502,16.733,2.522,11.280,5.718,4.24325,-15.65247,-0.47561
503,16.767,0.427,9.337,4.170,-3.72223,-17.10112,-8.17343
504,16.800,-0.761,9.302,3.727,-4.39618,-7.66169,-4.76665
505,16.833,0.309,8.759,2.823,4.14980,9.70920,6.20664
506,16.867,0.801,7.863,3.434,-0.34300,8.56004,11.71724
507,16.900,1.713,8.009,3.646,-1.40643,4.94051,10.75226
508,16.933,2.325,8.349,4.330,-0.40942,-8.64391,11.20402
509,16.967,1.916,7.702,3.843,-17.23182,-26.50262,10.57560
510,17.000,0.963,7.991,2.392,-31.42811,-51.05994,11.73614
511,17.033,1.050,7.650,0.078,-22.74947,-43.74694,24.98600
512,17.067,2.098,6.302,0.351,-27.89547,-59.21100,36.39486
513,17.100,-7.947,17.138,14.685,-29.09493,37.79579,-19.81861
514,17.133,-5.700,11.605,2.712,-20.06298,21.58058,8.90207
515,17.167,-2.220,10.106,2.326,39.52396,60.08511,25.08817
516,17.200,-0.568,11.934,7.916,-15.53348,16.19566,1.82533
517,17.233,-1.699,8.023,4.827,9.22134,9.63720,3.56718
518,17.267,-2.632,6.185,5.521,-2.40060,19.26763,7.52107
519,17.300,-0.665,6.975,3.755,-9.94902,21.87077,9.37447
520,17.333,-0.690,7.669,4.565,4.57612,11.85897,5.83398
521,17.367,-1.260,7.358,5.141,-3.23032,7.38786,3.05143
522,17.400,-1.702,8.382,4.538,-14.69031,12.54025,-1.25650
523,17.433,-2.067,9.079,4.479,-11.05420,15.54979,-1.39695
524,17.467,-2.278,9.083,4.553,-8.45349,17.14293,-1.15854
525,17.500,-1.946,9.226,4.684,-4.30278,18.38076,0.93967
526,17.533,-2.320,8.889,4.471,-3.38007,19.82590,-0.11567
527,17.567,-2.621,8.051,3.874,-7.49600,27.43858,-3.78448
528,17.600,-2.750,7.139,2.864,-17.31323,31.13534,-6.55213
529,17.633,-2.793,6.498,2.044,-37.39965,44.77462,-5.66433
530,17.667,-2.446,6.698,0.763,-46.33636,64.89089,-7.98686
531,17.700,-2.633,9.337,4.092,-40.76409,100.49043,7.50289
532,17.733,4.163,17.498,5.073,-27.69945,27.58483,48.91329
533,17.767,3.127,11.183,0.776,-24.09608,18.46248,21.38465
534,17.800,-0.166,10.582,3.663,-44.33040,23.75328,0.36889
535,17.833,0.358,9.741,1.750,-25.51966,27.71033,-3.89799
536,17.867,-0.161,8.244,3.339,-11.39189,42.77386,6.33481
537,17.900,0.426,8.028,3.522,-19.63864,43.58703,5.53452
538,17.933,0.447,8.934,3.447,-18.95729,37.57587,3.31463
539,17.967,-0.094,9.856,3.109,-14.02076,30.42834,1.13265
540,18.000,-1.018,10.226,2.947,-21.85959,36.28077,0.59198
541,18.033,-0.740,10.016,2.567,-20.42403,42.53406,2.90879
542,18.067,-0.832,9.949,2.416,-8.10273,46.43523,7.34678
543,18.100,-0.614,9.587,2.601,-4.80781,49.49689,2.76159
544,18.133,-0.180,9.453,2.381,-4.99757,46.82127,-1.04566
545,18.167,-0.067,9.480,2.493,-9.67028,46.20778,-4.04421
546,18.200,-0.289,9.657,2.267,-16.20185,46.43319,-7.00702
547,18.233,-0.433,9.808,1.994,-19.53367,49.05858,-5.66621
