frame_number,sync_timestamp,accel_x,accel_y,accel_z,gyro_x,gyro_y,gyro_z
0,0.000,0.287,9.850,1.626,-1.61832,-0.61832,-1.39695
1,0.033,0.343,9.914,1.575,-0.98227,-0.31550,-1.32315
2,0.067,0.324,9.802,1.566,-0.16791,-0.59287,-1.32570
3,0.100,0.242,9.673,1.642,-1.01526,-0.35878,-1.28244
4,0.133,0.379,9.835,1.646,-1.29262,-0.12468,-1.27737
5,0.167,0.345,9.880,1.615,-0.96183,-0.75318,-0.77100
6,0.200,0.321,9.869,1.535,-0.69466,-0.54200,-0.66414
7,0.233,0.345,9.739,1.634,-0.78371,-1.27989,-1.03563
8,0.267,0.326,9.908,1.579,-1.33825,-1.75063,-0.92114
9,0.300,0.264,9.835,1.688,0.43509,-1.47370,-0.98505
10,0.333,0.314,9.881,1.691,-0.87527,-0.62597,-1.31548
11,0.367,0.346,9.745,1.727,-1.28451,-0.80103,-0.99991
12,0.400,0.297,9.773,1.695,-2.15267,-0.88549,-1.19847
13,0.433,0.250,9.859,1.717,-1.80917,-0.53944,-0.90332
14,0.467,0.310,9.886,1.692,-0.55988,-0.59796,-0.94147
15,0.500,0.426,9.931,1.583,-0.77864,0.24429,-0.55725
16,0.533,0.305,9.801,1.539,-1.87022,0.62850,-0.07380
17,0.567,0.389,9.890,1.561,-2.10941,0.78879,-0.36127
18,0.600,0.503,9.905,1.434,-1.91603,0.92366,-1.64885
19,0.633,0.651,9.883,1.476,-2.36387,0.27990,-2.97966
20,0.667,0.557,10.012,1.442,-2.34351,-0.84732,-6.09160
21,0.700,0.053,10.204,1.494,-1.65645,0.64126,-5.19849
22,0.733,0.228,9.807,1.492,5.19838,4.31027,-3.61844
23,0.767,0.781,9.703,1.514,3.61564,3.19074,-2.34606
24,0.800,0.845,9.780,1.401,-0.67939,0.85496,-3.19084
25,0.833,0.843,9.865,1.470,1.36384,-2.18319,-3.55215
26,0.867,1.018,9.954,1.438,0.77863,-2.93358,-2.45805
27,0.900,0.620,10.070,1.420,1.64891,-4.67938,0.00005
28,0.933,0.657,9.985,1.602,2.84474,-3.30280,1.45803
29,0.967,0.608,9.939,1.418,1.54960,-4.47074,1.20357
30,1.000,0.627,9.711,1.808,3.42740,-3.44274,2.54175
31,1.033,0.551,9.860,1.641,5.03048,-4.69467,6.04829
32,1.067,0.499,9.888,1.592,6.38678,-4.28752,7.60815
33,1.100,0.534,9.845,1.755,5.00765,-5.18329,8.22903
34,1.133,0.567,9.875,1.569,7.69971,-9.78113,8.23665
35,1.167,0.414,8.822,1.711,10.53944,-12.07888,3.02290
36,1.200,0.129,8.875,1.628,16.91602,-14.00000,-9.35876
37,1.233,-0.105,11.140,0.678,2.31048,-3.64382,-17.04579
38,1.267,-0.842,11.321,0.375,5.33518,-1.96638,-4.75380
39,1.300,0.026,9.905,1.748,9.15362,-5.14484,4.27451
40,1.333,0.034,9.833,0.717,8.45022,-9.68431,7.42206
41,1.367,-0.069,9.795,0.840,10.71984,-8.10704,7.78897
42,1.400,-0.196,8.856,0.843,15.57998,-1.88556,0.29022
43,1.433,-0.879,8.997,0.791,5.04611,7.19828,-0.22907
44,1.467,-0.773,9.372,0.180,-0.07889,12.19077,1.36133
45,1.500,0.297,9.874,0.125,0.56489,16.29771,-1.08399
46,1.533,-0.109,10.214,0.556,4.74031,16.17807,-2.89562
47,1.567,-0.512,10.092,1.021,8.90076,17.40205,-5.31303
48,1.600,-0.836,9.713,0.802,1.99201,18.23670,-1.83195
49,1.633,-0.346,9.815,0.982,-13.80701,20.51150,1.75841
50,1.667,0.936,11.301,1.275,-18.43992,23.80439,3.33833
51,1.700,0.275,11.253,2.207,-4.59539,-7.55723,2.74808
52,1.733,-0.823,10.311,3.203,-7.24941,2.42252,-7.24948
53,1.767,0.064,9.568,3.891,-1.93397,14.17036,-9.79645
54,1.800,0.800,8.799,3.728,1.83962,12.47318,0.03067
55,1.833,0.710,9.001,3.225,-5.63860,2.40970,8.72017
56,1.867,0.874,10.196,3.024,-12.53177,-2.39692,5.69219
57,1.900,1.841,10.793,2.751,-3.69459,-6.45805,-8.90842
58,1.933,1.073,9.714,2.666,4.92113,-10.71754,-9.45040
59,1.967,0.348,9.168,1.880,5.80918,-3.61581,-2.35888
60,2.000,0.649,9.371,1.863,7.34359,-0.73280,0.68701
61,2.033,1.381,9.270,1.548,10.74019,-5.16724,-0.86976
62,2.067,1.751,9.277,1.118,9.92371,-11.33068,-4.73533
63,2.100,1.168,9.282,0.268,9.67935,-17.67940,-1.04587
64,2.133,0.816,8.656,0.225,7.65933,-25.97188,4.65391
65,2.167,1.324,8.246,0.157,-5.15505,-25.67435,3.74306
66,2.200,1.290,9.021,0.165,-13.54954,-22.70227,-3.75569
67,2.233,1.098,8.842,-0.356,-5.43037,-17.95191,-0.20879
68,2.267,1.807,11.046,1.710,5.05949,-10.78459,-0.22050
69,2.300,-2.153,17.514,7.900,-32.22566,14.71787,-29.69320
70,2.333,-2.750,15.026,3.633,0.88034,31.54560,-31.56472
71,2.367,3.140,10.206,4.804,6.16627,20.11794,9.24478
72,2.400,1.130,10.070,3.522,-6.40941,-12.54119,8.57970
73,2.433,-1.247,7.481,4.073,16.54953,-7.93269,5.01520
74,2.467,-0.409,6.078,3.846,-2.25302,7.57323,-0.39231
75,2.500,-0.407,7.324,3.227,-20.08395,16.96253,-3.19805
76,2.533,-0.945,9.168,3.360,-14.00621,17.08320,8.27349
77,2.567,-0.647,9.503,3.177,-6.50603,11.01246,9.89039
78,2.600,-0.081,10.087,2.696,-10.97715,6.63326,2.16760
79,2.633,0.512,10.260,2.324,-7.77317,0.88790,-0.46078
80,2.667,0.086,9.839,2.011,-0.32293,-6.52949,1.56497
81,2.700,-0.484,9.069,1.855,2.25182,-5.09949,3.22128
82,2.733,-0.527,8.894,1.613,0.99671,0.37327,0.17044
83,2.767,-0.445,8.848,1.355,-1.68212,3.48879,-5.52952
84,2.800,-0.311,8.722,1.070,-4.51172,8.16852,-9.43545
85,2.833,-0.428,9.217,1.229,-9.11724,14.62378,-11.90321
86,2.867,-0.527,10.129,0.843,-10.38930,17.89049,-7.42213
87,2.900,0.268,10.410,0.603,-9.76987,14.86178,-4.74046
88,2.933,0.141,10.022,0.412,-4.01289,8.35351,-4.29009
89,2.967,-0.218,9.967,0.316,-9.11720,5.88565,-5.73305
90,3.000,-0.615,10.709,0.417,-12.02281,12.64086,-9.04583
91,3.033,1.032,11.646,2.060,-13.02313,17.27020,-6.81696
92,3.067,1.099,11.815,3.583,-3.85231,-10.14310,-0.29484
93,3.100,0.491,10.436,3.948,-2.51088,-12.80851,7.93860
94,3.133,0.140,8.855,4.085,-0.13742,-0.18027,3.47073
95,3.167,0.642,8.992,3.249,1.10946,2.84472,6.87040
96,3.200,0.833,10.053,2.799,-0.64891,-3.49631,11.48811
97,3.233,1.196,10.602,2.519,3.39710,-1.18086,1.27716
98,3.267,1.923,9.813,2.436,7.62838,-5.93407,-5.65919
99,3.300,1.446,9.280,1.894,7.91514,-4.71715,-6.89324
100,3.333,0.780,9.277,1.678,8.78955,-8.29026,-2.76919
101,3.367,0.796,9.519,1.158,11.57211,-6.74305,-0.51407
102,3.400,1.410,9.424,1.075,15.73284,-9.61838,-0.54201
103,3.433,1.427,9.125,0.437,16.28952,-17.28811,0.95198
104,3.467,1.033,8.159,0.128,10.42235,-24.56826,10.57969
105,3.500,1.050,7.653,0.566,-3.06873,-19.55140,6.93688
106,3.533,0.943,8.375,0.229,-16.94097,-16.04638,0.38485
107,3.567,1.283,8.842,-0.488,-11.72004,-13.33240,4.42381
108,3.600,2.506,9.890,0.817,-5.57288,-11.80984,4.67468
109,3.633,-3.014,17.890,8.215,-38.07403,26.07109,-29.05887
110,3.667,-4.276,15.821,3.891,8.32466,31.41809,-27.62633
111,3.700,3.890,10.749,4.983,3.06922,13.61138,17.45848
112,3.733,2.093,9.781,3.506,-6.23658,-16.11727,9.00474
113,3.767,-0.219,7.787,3.183,6.20654,-16.99638,-0.51446
114,3.800,-1.410,6.631,4.084,6.57731,1.26090,-3.22788
115,3.833,-0.878,6.979,3.303,1.49174,9.39471,-0.94368
116,3.867,-0.395,8.701,3.693,-4.43471,6.51718,6.88691
117,3.900,0.162,9.753,3.094,1.58226,1.19679,8.09774
118,3.933,-0.229,9.477,3.120,-6.93386,-3.57718,2.02490
119,3.967,-0.375,10.200,2.282,-14.76325,-0.99131,-3.62434
120,4.000,0.080,10.000,1.747,-5.40686,-2.69080,0.68802
121,4.033,-0.373,9.426,1.824,2.40092,-0.54516,2.13953
122,4.067,-0.585,9.392,1.693,4.80641,6.79968,-0.29724
123,4.100,-0.368,9.200,1.481,4.94505,8.94969,-2.70568
124,4.133,-0.102,9.236,0.984,3.69292,9.04316,-7.34379
125,4.167,-0.075,9.540,0.821,2.24427,12.06765,-13.48013
126,4.200,-0.705,9.664,0.862,1.18409,13.69805,-15.96819
127,4.233,-0.499,9.238,0.809,-5.96653,16.90816,-9.23801
128,4.267,0.307,9.771,0.672,-10.72359,13.98688,-4.25730
129,4.300,0.093,9.939,0.536,-7.69794,6.69539,-4.20912
130,4.333,-0.517,10.272,0.739,-8.57125,9.98393,-7.66896
131,4.367,0.231,11.980,1.353,-16.95489,12.66439,0.14125
132,4.400,1.304,11.368,2.098,-11.02218,-8.53417,6.91162
133,4.433,0.793,10.914,2.917,-14.92717,-15.05449,3.86632
134,4.467,-0.135,10.811,3.010,-8.50275,-10.18973,-4.57251
135,4.500,0.420,9.537,3.794,4.12822,-4.61774,1.94343
136,4.533,0.811,8.461,3.739,8.38812,-5.96212,13.74148
137,4.567,0.473,8.894,3.463,4.08399,-5.72081,19.04279
138,4.600,1.088,10.582,2.776,1.49344,-6.88066,9.21679
139,4.633,1.957,10.538,2.878,8.44269,-15.94307,-4.21475
140,4.667,1.196,9.654,2.089,8.49997,-8.42027,-8.26522
141,4.700,0.580,9.070,1.601,14.42165,-7.08286,-2.79381
142,4.733,0.446,9.304,1.407,17.65615,-3.36831,2.93326
143,4.767,0.990,9.315,1.134,20.03555,-5.72113,5.17616
144,4.800,1.111,8.975,0.718,19.13002,-13.74551,5.91182
145,4.833,0.931,8.020,0.111,9.42491,-19.95168,10.28730
146,4.867,0.689,7.843,0.496,-1.42057,-16.35264,12.82164
147,4.900,0.428,8.449,0.100,-18.50136,-6.59140,7.22453
148,4.933,0.142,8.176,-0.193,-19.63262,0.74398,9.13825
149,4.967,1.012,9.852,1.659,-13.29897,18.63052,5.93396
150,5.000,-1.772,17.225,7.146,-40.67573,46.69337,-31.57552
151,5.033,-1.444,13.482,2.082,-4.29726,41.21791,-17.08682
152,5.067,4.176,11.086,4.571,-13.51345,5.80091,10.76802
153,5.100,1.518,12.810,3.710,-3.84109,-16.19979,-2.37078
154,5.133,-1.925,9.457,4.504,10.44296,-14.04218,-2.15757
155,5.167,-1.409,6.975,3.362,-3.68641,8.57537,-0.83246
156,5.200,-0.858,7.627,3.134,-19.95520,18.00174,3.34048
157,5.233,0.296,9.106,2.632,-4.66451,11.96101,6.47616
158,5.267,0.152,9.119,3.046,8.77380,2.75671,4.73377
159,5.300,-0.152,8.858,2.752,-1.20687,1.39106,-2.74158
160,5.333,-0.270,9.002,2.479,-5.91929,-0.37080,-4.60105
161,5.367,-0.249,9.181,1.944,-8.07980,-4.46552,-0.16894
162,5.400,-0.241,9.465,1.400,-8.90354,-5.22028,2.92970
163,5.433,-0.175,9.663,1.224,-5.27521,-5.35753,-0.12524
164,5.467,-0.150,9.735,1.210,0.95538,-6.26306,-4.73544
165,5.500,-0.302,9.599,0.990,5.43265,-4.46377,-7.83195
166,5.533,-0.482,9.296,0.880,5.03942,0.06376,-8.67049
167,5.567,-0.540,9.259,0.685,2.50666,5.85740,-8.39686
168,5.600,-0.612,9.315,0.895,-0.82770,4.67319,-6.40842
169,5.633,-0.456,9.995,0.862,-1.13289,7.02970,-4.18715
170,5.667,-0.255,10.032,0.237,1.13122,7.94987,-7.49986
171,5.700,-0.776,9.398,-0.491,-8.49115,8.47823,-10.10684
172,5.733,-0.780,10.472,0.114,-17.34516,17.86795,-6.86928
173,5.767,1.455,12.571,2.586,-18.49374,15.27396,1.60729
174,5.800,1.789,11.901,3.800,-5.34544,-20.60074,12.23052
175,5.833,-0.318,10.526,3.665,-11.37874,-9.81984,1.81044
176,5.867,0.245,9.976,3.484,-0.58228,2.29060,0.95736
177,5.900,0.533,9.097,3.217,10.48261,1.28873,6.66131
178,5.933,0.411,9.183,3.092,4.19945,0.44534,12.05584
179,5.967,1.353,9.960,2.361,5.96819,-2.36907,4.40263
180,6.000,1.886,10.274,2.286,8.18688,-9.13640,-8.89482
181,6.033,0.869,9.824,1.930,9.88412,-4.35034,-10.47062
182,6.067,0.380,9.195,1.514,11.82775,-7.40208,-3.74670
183,6.100,0.448,9.296,1.341,12.30217,-7.74110,-0.75051
184,6.133,0.975,9.425,0.729,13.52741,-10.25046,-3.56032
185,6.167,1.322,9.329,0.263,14.19638,-18.55377,-3.45242
186,6.200,0.772,8.198,-0.365,10.55365,-23.86957,5.39171
187,6.233,0.531,7.593,-0.266,2.71909,-24.62193,10.77562
188,6.267,1.298,8.193,-0.046,-6.90727,-18.33756,7.03724
189,6.300,1.120,8.880,0.194,-9.17650,-15.82547,1.98696
190,6.333,1.156,10.489,2.021,-15.08260,-5.73811,-5.84772
191,6.367,-2.880,16.541,6.436,-31.79182,20.58448,-40.43273
192,6.400,-1.287,12.591,4.079,2.93344,32.27344,-13.98958
193,6.433,3.516,12.232,4.599,-23.86167,-7.22313,8.42616
194,6.467,0.886,12.180,3.480,5.86022,-24.05007,-2.57700
195,6.500,-1.790,9.421,4.338,14.63710,-16.69362,-7.33584
196,6.533,-1.325,7.084,3.452,7.10835,2.59956,-4.49932
197,6.567,-0.868,6.986,3.087,-7.40838,12.71229,3.88700
198,6.600,-0.748,8.601,2.690,-6.51281,18.24945,11.78949
199,6.633,-0.471,9.239,2.578,3.91147,15.65761,11.43015
200,6.667,-0.124,9.262,2.525,-0.56056,10.80698,4.32971
201,6.700,0.245,9.329,2.132,-4.96330,3.10947,-2.60104
202,6.733,0.075,9.647,1.682,-1.02289,-1.45103,-3.16509
203,6.767,-0.190,9.639,1.478,2.35822,-4.32824,-0.20546
204,6.800,-0.127,9.280,1.195,2.63925,-4.65837,1.04729
205,6.833,-0.058,9.144,1.344,2.22249,-3.71557,-2.33733
206,6.867,-0.453,9.377,1.270,3.52699,0.02848,-6.64051
207,6.900,-0.612,9.467,1.122,4.56836,7.82315,-11.83773
208,6.933,-0.855,9.175,0.904,0.78752,14.18756,-12.53048
209,6.967,-0.396,9.295,0.951,-6.72359,17.07776,-5.87121
210,7.000,0.400,9.687,0.534,-11.04004,12.26243,-2.50539
211,7.033,-0.099,10.007,0.451,-5.14766,9.30648,-7.08154
212,7.067,-0.903,10.551,0.628,-10.35269,14.12460,-7.23007
213,7.100,-0.084,11.778,0.899,-17.68248,16.87107,4.70138
214,7.133,0.501,11.677,2.301,-14.87052,-4.10811,5.28242
215,7.167,-0.095,11.694,2.819,-8.40419,1.55294,-0.83908
216,7.200,0.257,10.164,3.794,4.12352,6.46480,0.89130
217,7.233,0.750,8.228,3.842,10.91791,8.44656,6.35724
218,7.267,0.927,8.243,3.310,4.11275,5.63670,14.18009
219,7.300,1.453,10.531,3.217,-4.48744,-2.34223,11.46681
220,7.333,1.687,11.162,2.611,4.16683,-7.53456,-9.12636
221,7.367,1.414,9.652,2.587,4.09754,-6.28815,-12.77725
222,7.400,0.759,9.158,1.714,7.85659,-1.73193,-4.63156
223,7.433,0.356,9.321,1.694,13.22170,-1.45979,2.97998
224,7.467,1.121,9.437,1.436,15.67018,-3.54355,1.82373
225,7.500,2.063,9.363,1.090,19.30060,-14.07352,-1.67705
226,7.533,1.462,8.850,0.227,17.57356,-23.03863,2.80529
227,7.567,0.573,8.070,-0.090,8.85900,-18.38931,6.11406
228,7.600,0.333,7.844,0.234,-3.36379,-8.45881,6.42175
229,7.633,0.512,8.355,-0.116,-16.17675,-2.23845,4.33135
230,7.667,1.222,8.393,-0.374,-8.30337,0.50075,7.53975
231,7.700,2.542,11.989,3.357,-19.83717,8.96265,-9.74133
232,7.733,-3.369,16.731,7.435,-35.28491,27.14093,-55.00067
233,7.767,-0.075,10.266,4.097,11.94694,29.42858,-3.82882
234,7.800,3.992,12.344,5.089,-28.25692,-11.16793,10.30268
235,7.833,-0.214,12.833,3.232,14.89530,-30.25369,-4.71883
236,7.867,-1.610,8.540,4.484,19.28129,-9.37705,-4.61333
237,7.900,-0.676,7.292,2.945,-11.02055,-2.68524,0.18810
238,7.933,-0.520,8.147,2.622,-6.96516,3.64536,5.83230
239,7.967,-0.084,8.510,2.752,1.04705,0.84093,10.88364
240,8.000,-0.255,8.920,2.350,-1.53081,-2.20202,6.70757
241,8.033,-0.197,9.137,2.177,-3.68087,-4.60489,1.21777
242,8.067,0.101,9.512,1.709,-3.18941,-9.12709,-1.75229
243,8.100,-0.062,9.652,1.393,0.62361,-10.59374,-1.63635
244,8.133,-0.501,9.405,1.214,3.47785,-7.91194,-2.23273
245,8.167,-0.515,9.408,1.110,5.80205,-2.38251,-4.44308
246,8.200,-0.524,9.157,0.945,7.12668,2.36872,-8.18034
247,8.233,-0.382,9.263,1.038,5.12088,8.94005,-9.88414
248,8.267,-0.101,9.286,1.041,0.33261,9.13339,-7.30852
249,8.300,-0.483,9.450,1.094,-5.53072,9.16137,-2.61539
250,8.333,-0.123,9.731,0.492,-6.59893,8.25865,-2.88878
251,8.367,-0.491,10.122,0.397,-3.64604,9.27626,-4.95952
252,8.400,-0.784,10.545,0.733,-8.94360,13.32495,-3.59469
253,8.433,0.352,11.559,1.187,-17.32910,14.02798,4.93643
254,8.467,1.504,11.730,2.156,-7.96932,-13.34665,9.67898
255,8.500,0.375,11.117,2.522,-5.69069,-14.33623,0.19554
256,8.533,-0.684,10.302,3.591,-0.44845,-3.85141,-2.37550
257,8.567,0.193,9.385,3.501,10.21416,6.66768,6.05185
258,8.600,0.936,9.107,3.366,11.16402,0.54243,14.88297
259,8.633,1.530,9.814,3.083,4.34120,-8.44678,8.12679
260,8.667,1.537,10.057,2.603,5.30078,-17.28449,-6.92657
261,8.700,1.060,9.767,2.387,5.43622,-12.83809,-12.03350
262,8.733,0.623,9.072,1.769,10.67165,-9.98876,-7.19057
263,8.767,0.325,8.852,1.655,9.54188,-7.38287,0.29290
264,8.800,1.103,9.401,1.491,7.11138,-3.45639,1.18661
265,8.833,1.478,9.825,1.291,10.65375,-5.23280,-3.03106
266,8.867,1.108,9.376,0.728,13.25059,-7.97490,0.60303
267,8.900,0.894,8.106,0.477,8.33414,-15.28185,8.22788
268,8.933,1.048,7.398,0.678,5.59994,-11.59895,10.94678
269,8.967,1.131,8.238,1.103,-2.45050,-8.35380,8.51061
270,9.000,0.566,8.946,0.431,-3.48970,-7.36586,6.01399
271,9.033,1.729,9.085,1.676,2.82945,1.31458,3.87309
272,9.067,-0.829,16.709,8.802,-47.48543,27.10535,-25.17286
273,9.100,-2.639,14.112,3.150,-9.11008,24.99473,-29.44734
274,9.133,4.302,10.640,5.822,-8.28472,-4.00866,14.03161
275,9.167,0.059,12.433,4.261,-7.61508,-17.66339,-3.88856
276,9.200,-1.506,9.544,4.391,8.80394,-2.49484,-8.50326
277,9.233,-1.103,7.469,3.579,-7.84253,7.00774,-0.07443
278,9.267,-0.558,7.995,2.873,-13.20848,15.99463,9.49154
279,9.300,-0.097,8.345,3.021,-3.49719,13.89134,13.31163
280,9.333,0.099,8.673,2.992,2.01223,9.38092,9.86950
281,9.367,0.109,9.114,2.863,-4.91488,3.45855,4.77104
282,9.400,0.016,9.272,2.187,-9.76074,0.27827,1.90405
283,9.433,-0.131,9.445,1.726,-4.48066,-1.80184,2.38051
284,9.467,-0.167,9.477,1.486,-3.84836,-3.41647,0.16434
285,9.500,-0.287,9.320,1.295,2.74625,0.21872,-2.44611
286,9.533,-0.604,9.016,1.384,2.09532,1.94426,-5.62569
287,9.567,-0.529,9.187,0.802,-2.33423,8.14400,-11.64741
288,9.600,-0.546,9.040,0.841,-6.55341,13.73553,-13.51682
289,9.633,-0.486,9.815,1.124,-10.58051,15.74727,-7.13732
290,9.667,-0.185,9.996,0.946,-9.24928,14.56670,-1.41924
291,9.700,-0.068,9.500,0.343,-6.53172,11.01981,-3.69882
292,9.733,-0.275,10.048,0.278,-7.33413,11.34707,-6.15147
293,9.767,-0.712,10.107,0.108,-10.51321,15.94152,-7.10055
294,9.800,-0.158,10.949,0.739,-19.98392,20.10427,-1.22521
295,9.833,1.284,11.737,2.319,-9.25362,6.58486,3.48228
296,9.867,1.352,12.002,2.953,-3.41955,-15.52372,8.19581
297,9.900,-0.063,10.125,3.858,1.60250,-12.47387,1.00880
298,9.933,-0.135,9.302,3.948,-1.77801,1.35339,1.49983
299,9.967,0.905,9.093,3.182,14.13027,-2.29377,13.03811
300,10.000,0.723,9.172,3.310,10.25096,-7.03869,17.08013
301,10.033,1.380,10.405,2.659,3.46460,-6.67064,-0.54370
302,10.067,1.958,10.686,2.583,8.57294,-14.15266,-15.77177
303,10.100,0.829,9.623,1.969,12.17727,-4.84692,-14.86090
304,10.133,0.187,8.827,1.583,17.01559,-3.88888,-4.89236
305,10.167,0.168,9.159,1.140,17.60787,-2.09136,1.33020
306,10.200,1.280,9.295,1.358,22.56819,-4.13701,0.63033
307,10.233,1.548,9.073,0.573,24.25257,-14.81497,1.76872
308,10.267,1.094,8.160,-0.105,20.78684,-23.45042,7.42398
309,10.300,0.582,7.421,0.069,11.78311,-18.14594,9.63082
310,10.333,0.259,7.871,0.193,-5.66866,-3.84448,3.83462
311,10.367,0.873,8.335,-0.678,1.22371,2.28319,14.32265
312,10.400,2.511,11.103,3.441,-23.64279,-8.72867,6.01018
313,10.433,-4.348,19.116,9.094,-53.06631,26.27754,-61.64261
314,10.467,1.425,11.196,4.856,17.24580,20.10140,-5.62319
315,10.500,3.321,10.764,5.121,-19.95883,-20.07942,3.72079
316,10.533,-0.657,11.938,4.102,10.90379,-33.51257,-8.76902
317,10.567,-1.734,8.995,5.012,11.45169,-13.71858,-9.62101
318,10.600,-1.024,7.164,3.556,-12.71097,-6.37241,-4.04050
319,10.633,-1.375,7.650,2.917,-14.29171,8.20036,4.96138
320,10.667,-1.138,8.879,2.960,-12.22501,19.32074,13.05429
321,10.700,-0.597,9.120,2.655,-7.99742,18.43135,15.36878
322,10.733,-0.134,8.782,2.564,-10.53835,14.60107,9.19605
323,10.767,0.215,9.269,1.948,-11.77768,5.01596,6.13042
324,10.800,0.142,9.413,1.826,-5.22526,-1.31243,3.55776
325,10.833,-0.436,9.190,1.512,-4.08918,-3.47145,2.22813
326,10.867,-0.473,9.550,1.530,-3.01504,-0.76409,0.15150
327,10.900,-0.154,9.878,1.323,3.77896,1.14227,-4.51906
328,10.933,-0.249,9.458,0.887,9.92927,3.79097,-9.38755
329,10.967,0.244,9.424,0.922,6.61955,1.76505,-13.76942
330,11.000,-0.105,9.273,0.764,2.10732,-0.99599,-16.71537
331,11.033,-0.676,9.455,0.769,-4.45554,3.19813,-11.36681
332,11.067,0.018,9.691,1.129,-4.61914,6.55021,-9.22780
333,11.100,-0.490,10.318,0.375,-0.80535,12.03769,-7.20590
334,11.133,-0.494,10.548,0.889,-4.72343,18.01836,-4.14240
335,11.167,0.381,12.183,1.235,-18.38977,14.56561,4.80546
336,11.200,1.350,12.580,2.207,-8.06745,-12.07632,10.81194
337,11.233,-0.497,10.524,2.737,8.59316,-9.58862,-1.78400
338,11.267,-1.305,9.510,3.736,-0.69642,19.85682,-9.68562
339,11.300,1.014,9.246,3.594,14.20642,22.81720,2.42483
340,11.333,1.174,8.805,3.809,15.95615,-1.13111,21.46112
341,11.367,0.995,9.564,3.487,5.84777,-7.49533,17.91874
342,11.400,1.858,10.506,2.838,4.37568,-9.48871,-5.91382
343,11.433,0.902,10.529,2.623,14.64666,-12.74736,-15.88586
344,11.467,0.701,9.405,1.799,18.21132,-7.96867,-13.13389
345,11.500,0.267,8.689,1.793,20.09570,-2.30318,-2.80633
346,11.533,0.544,9.014,1.483,18.54803,2.83072,-1.68901
347,11.567,1.507,9.261,1.369,22.92177,-2.39882,-5.52912
348,11.600,1.587,9.005,0.626,20.51257,-12.10341,-1.88225
349,11.633,1.026,8.077,0.097,8.49403,-20.70239,4.24715
350,11.667,1.010,7.312,0.613,-4.60213,-13.59550,1.19114
351,11.700,0.897,7.792,0.276,-19.27697,-6.02497,-3.76890
352,11.733,1.436,8.934,0.696,-18.93821,3.76057,2.29440
353,11.767,-1.655,16.773,7.940,-22.13334,21.04620,-12.50717
354,11.800,-2.526,12.882,2.926,-1.47294,32.71617,-23.59892
355,11.833,4.181,11.788,5.781,-28.76516,0.77095,14.40127
356,11.867,1.450,14.518,4.283,-6.37138,-19.76216,1.80548
357,11.900,-1.434,9.839,4.936,14.37007,-25.61291,-2.24425
358,11.933,-0.882,6.894,4.225,-0.93151,-13.31673,5.40794
359,11.967,-0.241,6.791,3.208,-15.12705,-5.72780,6.47996
360,12.000,-0.007,7.837,3.273,-11.99883,-5.04509,6.34049
361,12.033,-0.151,8.582,3.304,-3.23464,-7.15396,4.25677
362,12.067,-0.205,8.951,3.251,-7.35466,-10.24465,-1.08113
363,12.100,-0.110,9.257,2.646,-9.64461,-8.95573,-5.58015
364,12.133,-0.029,9.782,2.350,-1.83045,-14.41570,-4.53275
365,12.167,-0.327,9.658,1.712,2.51888,-18.04677,-0.25821
366,12.200,-0.531,9.619,1.587,1.00084,-15.63229,0.16412
367,12.233,-0.524,9.585,1.273,1.65149,-12.60701,-3.27131
368,12.267,-0.641,9.270,1.255,7.30217,-4.95598,-7.94013
369,12.300,-0.907,9.006,1.107,7.37549,3.55339,-10.45426
370,12.333,-1.445,8.474,0.755,-8.19601,11.18015,-5.46527
371,12.367,-0.100,8.997,0.118,-22.95757,15.38915,-5.21654
372,12.400,0.029,10.141,0.103,-18.09418,11.29155,-7.09273
373,12.433,-0.785,10.350,0.786,-9.34150,8.30887,-9.08285
374,12.467,-0.400,11.422,2.029,-17.99808,11.94910,-5.30287
375,12.500,1.300,12.140,2.992,-23.33335,-5.78178,9.84311
376,12.533,0.623,11.698,3.407,-11.06029,-10.44158,-0.94667
377,12.567,-0.716,10.593,3.668,-2.74513,-2.37143,-7.30049
378,12.600,0.243,8.696,3.521,10.26286,11.50016,3.88218
379,12.633,0.754,8.550,3.350,-0.14735,8.59365,14.65511
380,12.667,1.832,10.235,2.334,-4.53054,2.32751,7.08633
381,12.700,2.141,10.890,2.403,6.09299,-3.19043,-13.64909
382,12.733,1.248,9.327,1.964,5.09438,-2.10001,-16.90161
383,12.767,0.581,8.590,1.646,-0.59012,0.11448,-8.27386
384,12.800,0.218,9.264,1.132,-4.09579,6.48154,-2.54189
385,12.833,0.743,9.122,1.002,9.17641,9.62597,4.96248
386,12.867,1.840,9.242,0.812,9.34553,4.92562,9.12222
387,12.900,1.860,8.629,0.175,6.31269,-4.08505,13.26023
388,12.933,1.436,7.508,0.318,2.02783,-10.71244,16.68952
389,12.967,0.926,7.212,0.601,-1.71501,-6.88294,15.47075
390,13.000,0.613,8.380,0.539,-3.85509,-5.17531,19.00018
391,13.033,1.426,9.112,0.130,3.94441,-0.02248,24.06621
392,13.067,1.475,12.312,2.447,-9.19342,2.97489,11.63336
393,13.100,-4.207,17.339,9.571,-57.89101,76.70692,-67.75866
394,13.133,-0.160,11.667,4.337,-8.41665,51.39050,-30.09531
395,13.167,3.742,11.563,3.910,-14.09506,14.90581,23.35308
396,13.200,1.317,12.677,3.699,-7.04633,-19.30564,6.32150
397,13.233,-1.701,10.218,4.391,5.38839,-19.11810,-5.92265
398,13.267,-1.240,8.416,4.522,5.71003,-4.94658,-4.22139
399,13.300,-0.007,7.669,3.800,4.19042,-2.21385,-0.96988
400,13.333,0.130,8.364,3.827,8.60820,-4.11166,0.77604
401,13.367,-0.663,9.353,3.413,7.18077,-4.91622,1.42983
402,13.400,-0.702,9.658,3.314,6.19853,-3.46568,0.26728
403,13.433,-0.651,9.410,2.858,6.00509,-2.16543,-2.93635
404,13.467,-0.661,9.100,2.760,3.07393,2.58509,0.15252
405,13.500,-0.692,9.467,2.619,0.48092,6.97708,6.06867
406,13.533,-0.601,9.589,2.275,0.89572,8.83217,3.81691
407,13.567,-0.509,9.643,2.320,2.28748,11.27982,-0.04059
408,13.600,-0.443,9.687,2.282,1.08403,13.55720,-0.90077
409,13.633,-0.238,9.548,2.266,-0.29517,15.43511,-0.07633
410,13.667,-0.176,9.701,2.180,-1.58522,13.45548,1.01017
411,13.700,-0.208,9.996,2.047,-3.00000,13.51909,-0.18320
412,13.733,-0.312,9.923,1.988,0.33589,11.15522,-1.41730
413,13.767,-0.090,9.602,2.194,1.76082,12.24935,-1.25700
414,13.800,0.007,9.270,2.260,2.03825,12.09924,-0.06875
