frame_number,sync_timestamp,accel_x,accel_y,accel_z,gyro_x,gyro_y,gyro_z
0,0.000,-0.383,9.910,1.999,0.51908,2.31298,-2.83969
1,0.033,-0.283,9.803,2.067,2.09927,2.33586,-2.99999
2,0.067,-0.208,9.685,2.154,0.72008,1.63613,-2.92622
3,0.100,-0.369,9.723,2.052,-0.65650,2.46563,-3.81679
4,0.133,-0.378,9.618,2.064,-0.61573,2.11703,-3.38171
5,0.167,-0.289,9.648,1.864,-1.90277,3.00980,-3.10105
6,0.200,-0.268,10.046,1.997,-3.13743,4.65644,-4.10682
7,0.233,-0.247,9.973,2.046,0.78372,4.55471,-4.57762
8,0.267,-0.259,9.713,2.101,1.88298,4.39443,-4.26996
9,0.300,-0.204,9.646,2.205,0.38929,4.63359,-2.84731
10,0.333,-0.188,9.641,2.252,0.10943,4.40964,-2.60306
11,0.367,-0.101,9.797,2.156,0.33079,3.48601,-2.89059
12,0.400,-0.146,9.862,2.002,-1.21374,3.41220,-3.44275
13,0.433,-0.186,9.498,2.145,-0.78879,2.31801,-3.32060
14,0.467,-0.552,9.231,2.314,0.31307,2.93392,-1.73723
15,0.500,-0.101,10.020,2.552,1.96967,4.42748,0.55723
16,0.533,0.312,9.784,1.797,10.87271,3.61819,-2.53960
17,0.567,-0.322,8.874,1.451,-1.41273,3.43270,-7.91872
18,0.600,-0.570,9.392,1.437,-12.12208,7.91587,-7.87774
19,0.633,-0.029,10.001,1.830,-7.83706,4.73765,-1.07348
20,0.667,-0.126,9.539,1.954,-6.51133,-0.84232,7.02813
21,0.700,0.115,9.160,2.083,1.23665,-3.73257,10.42748
22,0.733,0.001,10.137,1.563,-1.40989,2.00775,10.73026
23,0.767,0.164,10.827,1.137,-4.29009,3.44279,9.06358
24,0.800,0.402,10.566,0.979,-3.25226,5.57263,6.57999
25,0.833,0.260,10.946,0.738,-9.64609,6.53691,-0.95964
26,0.867,-0.061,10.888,0.915,3.82403,7.98948,-6.53446
27,0.900,0.089,9.289,0.895,9.47329,9.29774,-2.68697
28,0.933,0.281,8.631,0.991,2.33324,7.29258,-1.63611
29,0.967,0.381,9.124,0.609,-0.84174,5.06859,0.45065
30,1.000,0.429,9.787,0.285,-0.70993,2.68705,2.74043
31,1.033,0.203,10.044,0.251,0.44289,0.82950,3.12977
32,1.067,0.671,9.867,0.226,6.77615,-2.44281,4.58782
33,1.100,0.522,9.934,0.333,10.00763,-5.31297,5.54962
34,1.133,0.313,9.864,0.118,5.30255,-8.73347,2.54997
35,1.167,0.395,9.740,0.274,6.45763,-9.68125,-1.43889
36,1.200,0.802,10.154,0.323,6.46596,-14.85401,-1.40465
37,1.233,0.928,11.140,0.636,0.25695,-15.92337,-6.29287
38,1.267,-1.039,11.891,0.454,-10.16539,-10.21376,-13.37404
39,1.300,-1.844,11.581,1.616,-6.69466,17.06916,-12.70208
40,1.333,0.292,10.492,1.599,-4.11207,26.60289,-0.90047
41,1.367,1.101,10.815,3.336,-19.86793,14.84967,5.68953
42,1.400,0.567,10.336,4.448,-13.23642,9.54948,-3.66423
43,1.433,-0.368,9.150,4.587,0.94668,-1.26719,-12.62106
44,1.467,0.069,8.876,3.527,-6.38489,-3.70003,-13.04052
45,1.500,-0.297,9.297,2.844,-15.78650,-4.80879,-4.51812
46,1.533,-0.985,9.189,2.209,-9.92862,-3.75072,0.92640
47,1.567,-0.769,9.226,2.140,-14.06370,-6.79390,2.50123
48,1.600,-0.424,9.390,1.532,-12.76300,-3.60307,1.45800
49,1.633,-0.268,9.212,1.532,-1.16784,-7.15535,-0.00508
50,1.667,-0.364,9.269,1.309,1.65140,-7.76843,1.28755
51,1.700,-0.725,8.899,1.338,3.96950,-1.97746,-1.04584
52,1.733,-0.668,8.956,0.701,4.95678,-4.74799,-2.57771
53,1.767,-0.432,8.654,0.259,4.05342,0.83973,-7.98731
54,1.800,-0.634,8.483,0.692,-1.12985,5.05360,-12.22144
55,1.833,-1.088,9.265,0.413,-0.94682,7.16028,-12.46027
56,1.867,-0.212,10.482,-0.192,-9.54189,5.67680,0.00469
57,1.900,-0.438,10.080,-0.297,-12.19836,-7.59536,5.56490
58,1.933,-1.592,10.760,-0.154,-8.73290,9.03339,-5.61081
59,1.967,0.498,13.447,0.786,-22.40753,19.57277,0.41510
60,2.000,2.023,13.738,2.715,-18.07643,-18.74213,25.77116
61,2.033,-1.490,9.885,4.120,5.42494,-30.90775,15.11418
62,2.067,-1.828,9.021,4.514,-11.96695,13.04682,0.97919
63,2.100,0.067,10.647,2.734,-2.10698,24.67177,8.95415
64,2.133,-0.237,10.212,2.468,12.96257,2.99302,21.58803
65,2.167,1.440,9.367,2.683,-8.60136,1.63300,-1.37948
66,2.200,1.077,9.153,1.446,-11.87178,-1.86934,-14.09938
67,2.233,0.672,9.307,1.065,4.02908,-1.90982,-5.68542
68,2.267,-0.149,8.752,1.521,19.07395,-6.16262,1.86272
69,2.300,0.043,8.217,1.278,15.35088,0.63343,1.37405
70,2.333,0.578,8.432,1.088,7.25134,-1.58524,2.40726
71,2.367,0.567,8.615,0.555,-0.17072,-0.77327,5.37673
72,2.400,0.386,8.552,0.244,-4.53438,-15.56523,10.52677
73,2.433,-0.063,9.754,0.190,1.93303,-10.74758,12.59438
74,2.467,0.620,10.465,0.527,11.83233,-9.72784,3.76754
75,2.500,-0.385,10.558,-0.067,10.67940,-9.51151,-9.64126
76,2.533,0.401,10.371,-1.484,21.51943,-5.02787,-8.02774
77,2.567,1.844,11.080,-0.922,20.72146,-14.75823,-1.33289
78,2.600,-1.674,12.649,3.436,-59.06617,16.83154,-32.60672
79,2.633,-3.782,11.402,7.509,-68.24996,52.24094,-52.53694
80,2.667,-1.361,11.342,4.635,13.00032,20.79872,-21.31508
81,2.700,2.181,10.161,4.022,-20.58825,5.93887,-6.11458
82,2.733,1.299,11.456,3.016,-13.42880,-5.40291,-4.51632
83,2.767,-0.926,10.044,2.331,10.91267,-5.68071,-6.72054
84,2.800,-1.766,8.100,1.876,-0.20528,4.46532,2.44590
85,2.833,-1.064,8.256,1.682,-3.58301,15.99863,8.54700
86,2.867,0.035,8.394,1.822,10.74714,17.57402,9.84121
87,2.900,-0.077,8.375,1.337,13.53273,10.36432,9.74670
88,2.933,-0.122,8.277,0.829,-1.30713,10.04425,6.88053
89,2.967,-0.126,9.223,0.468,-4.02883,7.60108,0.49419
90,3.000,-0.378,9.059,-0.082,6.44816,9.02845,-7.65900
91,3.033,-0.458,8.382,-0.154,2.48510,9.76831,-10.31225
92,3.067,-0.696,8.926,0.069,-1.55182,11.34298,-6.50232
93,3.100,-0.233,10.371,0.106,-11.51494,9.16686,5.33109
94,3.133,0.216,10.013,-0.187,-4.58918,-3.75330,0.03279
95,3.167,-0.660,9.658,-1.372,16.72112,4.10584,-9.87569
96,3.200,0.028,12.740,0.949,-36.06916,13.29519,16.01182
97,3.233,2.073,12.803,5.886,-52.59323,-21.71342,41.18411
98,3.267,0.494,11.788,5.673,33.68446,-41.26492,24.82798
99,3.300,-1.577,9.557,4.201,-16.13083,-15.31223,0.45882
100,3.333,-1.884,10.878,2.715,-17.49064,7.56161,-5.76443
101,3.367,-0.422,9.939,1.654,14.22902,-9.95775,5.57372
102,3.400,1.161,8.665,1.919,-0.86494,-6.02431,-1.20518
103,3.433,1.562,9.068,1.480,7.42877,-11.29604,-9.11098
104,3.467,0.447,9.095,1.768,22.71680,-17.74081,-5.85435
105,3.500,-0.473,8.705,1.766,26.40572,-17.36838,0.37083
106,3.533,-0.291,8.429,1.630,16.25058,-8.79905,-2.93240
107,3.567,0.239,8.532,0.744,0.22753,-8.30916,-1.58313
108,3.600,0.265,8.456,0.066,3.09877,-15.90331,6.79584
109,3.633,0.630,8.325,0.396,1.50643,-34.04776,11.86900
110,3.667,0.492,9.112,0.739,15.56020,-8.57121,7.26047
111,3.700,-0.453,9.830,0.046,3.89267,-6.64443,-4.17699
112,3.733,-0.199,10.501,-0.400,4.38963,-9.73332,-10.22179
113,3.767,0.907,10.977,0.118,20.01319,-5.48900,-7.50441
114,3.800,-1.874,13.512,1.572,-29.90094,19.88411,-26.20742
115,3.833,-2.848,11.451,5.999,-57.43830,65.55776,-38.14457
116,3.867,0.925,10.268,5.665,0.82317,15.05865,-17.01063
117,3.900,1.095,11.213,4.148,-2.96232,-8.72122,-8.86604
118,3.933,0.264,10.842,3.012,-9.19992,-13.62813,-11.07326
119,3.967,-0.675,9.645,2.418,-8.38096,-6.25907,-6.36032
120,4.000,-1.032,9.038,1.853,-17.07621,-2.25278,-1.37348
121,4.033,-1.026,9.119,1.660,-8.76996,6.60575,2.06527
122,4.067,-1.083,8.853,1.654,5.63642,8.72119,3.12881
123,4.100,-0.511,8.204,1.327,18.47791,6.85752,5.29655
124,4.133,0.097,7.430,1.097,11.23433,3.84534,8.15238
125,4.167,-0.317,7.874,0.620,0.19710,3.71639,4.58526
126,4.200,-0.505,8.219,-0.003,-2.41885,7.57530,-4.68855
127,4.233,-0.675,8.803,0.282,1.93328,11.07422,-12.34944
128,4.267,-0.783,9.674,0.073,6.03809,16.63206,-11.79390
129,4.300,-0.373,10.158,-0.141,-5.40668,9.65006,4.97762
130,4.333,-0.215,9.646,-0.758,-7.64566,1.78472,6.77175
131,4.367,-1.211,11.366,-0.405,-6.87338,25.03494,2.83898
132,4.400,1.847,15.709,3.879,-60.85231,7.56359,37.43312
133,4.433,1.498,13.519,6.265,18.06973,-51.42374,34.94262
134,4.467,-2.569,8.676,5.940,-0.35563,-15.99627,8.04209
135,4.500,-2.245,10.322,3.605,-29.08688,20.75377,6.50586
136,4.533,-0.068,10.939,2.091,19.20624,9.50474,12.89942
137,4.567,0.516,9.211,2.539,0.61574,4.81605,4.58943
138,4.600,1.635,8.670,1.944,-1.21090,1.14187,-7.84164
139,4.633,0.744,9.041,1.352,14.58549,-11.25194,-6.58868
140,4.667,0.535,8.997,1.545,30.20795,-13.08211,-2.92874
141,4.700,-0.203,8.494,1.664,27.31747,-5.80867,-1.48355
142,4.733,-0.127,8.256,1.331,12.79998,-3.68718,1.73050
143,4.767,0.253,8.689,0.638,4.88797,-8.88755,9.45864
144,4.800,0.629,8.324,0.381,0.90757,-32.82294,10.44842
145,4.833,0.558,8.794,0.500,18.04453,-8.32597,12.74052
146,4.867,0.918,9.539,0.196,13.33984,-14.16629,1.90012
147,4.900,0.235,9.604,0.185,-3.36957,-8.18741,-11.58098
148,4.933,0.918,10.261,-0.273,0.59069,-15.79726,-6.67000
149,4.967,-2.009,13.339,2.849,-26.38310,8.58571,-24.74372
150,5.000,-3.853,12.684,6.356,-50.53330,69.03170,-50.60862
151,5.033,1.061,9.596,5.708,7.28313,31.20697,-17.54477
152,5.067,1.234,11.290,4.800,-11.88751,-0.14130,-8.48402
153,5.100,-0.561,11.558,3.437,-3.37030,-11.86208,-6.02672
154,5.133,-0.538,10.039,2.527,1.47411,-1.89255,-11.30985
155,5.167,-0.984,9.078,1.962,-15.56083,6.75199,-6.94101
156,5.200,-1.414,8.874,1.709,-9.85675,13.60131,-1.27762
157,5.233,-1.236,8.898,1.964,8.49986,13.43878,7.60726
158,5.267,-0.082,8.249,1.658,9.14884,11.49320,8.51624
159,5.300,0.533,7.637,1.251,2.83845,6.11120,6.31937
160,5.333,0.402,7.748,0.805,1.68284,-5.04289,1.95293
161,5.367,-0.139,8.281,0.181,-0.19518,-4.09431,-9.46773
162,5.400,-0.937,8.461,0.326,0.41610,1.57408,-16.13726
163,5.433,-0.927,9.242,0.417,0.76258,10.26947,-13.46443
164,5.467,-0.429,10.229,0.320,-1.72291,11.04945,-1.30229
165,5.500,0.019,10.618,-1.272,-11.62755,3.69897,12.10717
166,5.533,-1.013,10.676,-0.984,-8.84733,-1.10612,4.47711
167,5.567,-0.665,13.519,-0.620,-23.18269,19.38777,1.83831
168,5.600,2.222,14.236,4.399,-45.96615,-2.06611,33.30746
169,5.633,0.044,11.288,9.206,21.81321,-49.18153,40.10055
170,5.667,-2.300,8.878,4.648,-6.40899,-4.05433,0.78754
171,5.700,-1.653,10.016,3.185,-33.76152,21.06348,2.02658
172,5.733,-0.238,10.920,1.594,8.03427,-2.19300,11.57013
173,5.767,0.566,9.336,2.656,-5.18299,4.69471,-0.02912
174,5.800,1.285,8.976,1.752,-2.40332,0.16606,-14.54858
175,5.833,0.618,9.264,1.418,14.45117,-8.91299,-12.33705
176,5.867,0.287,8.835,1.325,33.21783,-16.38749,-0.65067
177,5.900,0.655,8.351,1.430,21.35653,-17.49369,6.64314
178,5.933,0.253,8.198,0.847,3.73391,-20.26642,2.63158
179,5.967,-0.390,7.965,-0.376,3.52693,-26.74985,5.29284
180,6.000,-0.838,9.765,0.576,12.30755,-10.23029,10.66824
181,6.033,1.706,10.318,0.312,14.23701,-11.20661,1.43223
182,6.067,0.326,9.038,0.683,2.92434,-8.56709,-12.25899
183,6.100,-0.435,8.387,-0.747,1.31233,-5.42032,-9.73902
184,6.133,0.571,10.262,-0.476,-6.42121,-2.10626,-10.46755
185,6.167,-1.835,14.691,4.890,-73.66428,32.73096,-42.89851
186,6.200,-1.645,13.172,5.451,-47.12953,62.86958,-48.59618
187,6.233,0.981,9.945,5.619,26.71367,12.67140,-6.87686
188,6.267,1.238,11.648,3.968,-25.60198,-1.31713,-3.11806
189,6.300,0.004,11.925,2.185,6.90105,-1.49789,-7.75209
190,6.333,-1.317,9.122,2.663,7.94439,1.52106,-4.73537
191,6.367,-0.847,8.362,1.396,-2.01322,9.75522,2.20352
192,6.400,-0.450,8.514,2.224,4.78096,12.24373,5.22605
193,6.433,-0.386,8.436,1.596,18.96238,5.60327,7.15396
194,6.467,0.092,7.511,1.239,16.57664,2.88481,7.97019
195,6.500,0.094,7.500,1.057,3.20199,1.12753,6.70491
196,6.533,-0.525,8.579,0.631,-4.57404,2.89719,-0.69142
197,6.567,-0.779,9.056,0.337,4.52447,8.87384,-9.22332
198,6.600,-0.715,8.555,0.574,-2.88691,13.07630,-12.87452
199,6.633,-0.014,8.905,0.506,-3.68733,14.39481,-5.19271
200,6.667,-0.076,10.353,0.031,-8.66618,7.31462,5.57158
201,6.700,-0.643,10.805,-0.896,-9.47694,-2.77406,2.69944
202,6.733,-1.816,10.682,-1.081,0.91992,15.71178,-8.23573
203,6.767,0.289,13.003,0.240,-33.57024,24.05908,6.55211
204,6.800,2.516,13.828,5.612,-45.73409,3.18867,34.47542
205,6.833,0.010,12.089,6.302,23.06863,-31.66140,24.52778
206,6.867,-1.416,8.697,4.416,3.39708,-8.10418,7.02405
207,6.900,-1.452,9.972,3.316,-12.45903,15.69057,8.26037
208,6.933,0.005,10.811,1.894,7.69297,2.29430,7.81335
209,6.967,1.880,9.385,2.305,2.37091,-4.42670,-4.33828
210,7.000,1.440,8.488,1.394,3.77396,-12.63830,-9.39972
211,7.033,0.499,8.301,1.273,12.78821,-15.80386,-4.06996
212,7.067,0.245,8.533,1.357,22.95241,-20.28949,1.07020
213,7.100,0.437,8.519,0.868,24.36228,-20.96346,-0.46272
214,7.133,0.467,8.222,0.832,5.47534,-25.03656,1.78896
215,7.167,-0.021,8.589,0.074,-8.50640,-14.06083,6.04778
216,7.200,-0.155,9.243,0.016,-1.13441,-19.05265,12.30614
217,7.233,0.494,9.580,0.219,13.32842,-16.27784,14.29873
218,7.267,0.265,10.376,0.104,19.21209,-14.52490,-0.54454
219,7.300,-0.413,10.057,-0.026,11.82360,-3.81027,-11.23222
220,7.333,0.501,10.513,-0.599,18.24536,-1.31680,-12.13682
221,7.367,-0.143,12.392,0.019,-8.76657,-14.85858,-14.08522
222,7.400,-1.207,13.739,4.642,-62.13799,27.42640,-35.54364
223,7.433,-0.535,9.390,6.461,-23.09631,44.38001,-30.09025
224,7.467,0.706,10.418,5.841,-2.37928,-12.93204,-6.51695
225,7.500,0.637,12.261,2.605,-32.21378,-20.41244,-6.44241
226,7.533,0.355,10.521,1.973,-4.80889,-10.32774,-13.87172
227,7.567,-1.620,8.588,2.077,-16.79667,-6.69430,-7.72753
228,7.600,-2.344,8.914,1.010,-18.78573,4.41223,3.78662
229,7.633,-0.827,9.090,1.410,-5.00480,4.84741,6.84213
230,7.667,-0.248,8.278,1.162,15.30588,6.26465,-0.47104
231,7.700,0.256,7.934,0.994,16.41184,4.61004,-1.54176
232,7.733,-0.114,8.088,0.650,7.79258,3.56777,0.59545
233,7.767,-0.671,8.785,0.267,-3.26503,7.37386,-3.43582
234,7.800,-0.613,8.650,0.120,1.28281,12.00811,-9.93916
235,7.833,-0.411,9.065,0.004,5.12740,17.26216,-11.80874
236,7.867,-0.528,10.032,-0.397,-2.78894,18.46307,0.10984
237,7.900,-0.122,10.597,-1.561,-12.96864,15.77740,7.48836
238,7.933,-0.729,10.912,-1.483,0.87643,11.16447,1.19305
239,7.967,1.007,13.878,0.613,-27.16686,19.97873,13.51136
240,8.000,2.813,13.166,5.523,-40.74117,-23.65961,47.80885
241,8.033,-1.756,9.855,6.191,25.11025,-33.45153,22.55747
242,8.067,-2.227,9.738,4.407,-20.09008,1.69832,-2.00756
243,8.100,-0.321,11.732,2.188,-7.88233,15.42569,0.84770
244,8.133,-0.008,9.890,2.571,15.03511,-3.84986,5.41992
245,8.167,0.727,8.382,2.216,-4.67624,2.00075,-1.91570
246,8.200,0.881,8.655,1.473,6.39288,-9.14271,-5.41974
247,8.233,0.569,8.976,1.491,17.51109,-15.01008,-2.05104
248,8.267,0.156,8.419,1.600,29.05854,-15.99754,3.30016
249,8.300,0.158,8.222,1.358,15.97036,-8.89372,2.72528
250,8.333,0.310,8.656,1.121,0.90162,-8.76671,2.94443
251,8.367,0.255,9.100,0.638,5.02876,-12.83004,3.87808
252,8.400,0.151,8.973,0.610,13.48919,-20.58776,10.72561
253,8.433,0.481,9.282,0.734,14.43510,-32.32534,11.18991
254,8.467,0.184,9.316,0.306,14.77488,-10.34393,-1.16879
255,8.500,-0.146,9.905,-0.230,0.98485,-9.92387,-8.58006
256,8.533,1.008,10.228,-0.812,10.90881,-8.44287,-6.06867
257,8.567,0.571,11.736,0.191,3.98303,-17.76089,-10.90038
258,8.600,-2.722,14.894,5.576,-74.61067,41.08548,-51.74073
259,8.633,-1.804,10.964,6.935,-37.68719,57.81290,-40.98896
260,8.667,1.678,10.064,5.187,9.18651,-7.56930,-8.03478
261,8.700,0.960,10.769,2.818,-32.05332,-12.22899,-9.61835
262,8.733,-0.284,10.739,3.024,-9.65567,1.15293,-16.28265
263,8.767,-1.699,9.466,2.637,-18.13699,7.54682,-8.98772
264,8.800,-1.477,8.856,1.702,-14.13739,12.74048,5.01528
265,8.833,-0.852,8.807,1.885,-8.27970,18.32817,7.82190
266,8.867,-0.525,8.600,1.767,8.70629,19.03861,7.53714
267,8.900,0.156,8.258,1.202,6.68692,10.41977,6.19853
268,8.933,0.250,8.129,0.856,-8.80756,9.26216,2.94614
269,8.967,-0.105,8.962,0.316,-10.03507,8.83213,-4.62902
270,9.000,-0.218,9.548,-0.170,6.64112,13.75568,-13.17552
271,9.033,-0.188,9.465,-0.100,14.78368,7.34860,-14.42241
272,9.067,-0.420,9.410,0.582,19.73752,7.26707,-8.56443
273,9.100,-0.017,9.242,1.039,6.59064,7.60906,-3.06330
274,9.133,0.376,8.872,0.444,4.06356,2.63827,0.59056
275,9.167,-0.015,8.593,-0.718,3.48147,3.43740,-2.08142
276,9.200,-2.942,9.608,-1.848,-2.73413,31.58787,0.38223
277,9.233,0.454,13.786,1.467,-74.42062,44.13769,23.30813
278,9.267,4.064,15.293,5.279,-36.16755,-3.32967,48.10704
279,9.300,0.005,10.149,5.638,37.41093,-55.38107,30.69416
280,9.333,-0.713,8.633,3.591,-31.08404,-15.68949,-0.09163
281,9.367,-1.358,11.537,3.847,-24.18231,-1.48636,-4.14498
282,9.400,-0.689,11.459,2.490,7.13769,2.35866,-0.22881
283,9.433,0.714,9.854,2.657,12.88075,0.93348,1.85475
284,9.467,1.081,9.528,2.572,18.43762,-8.04573,-3.54194
285,9.500,0.251,9.345,2.715,18.02302,-12.46558,-5.22133
286,9.533,0.105,9.370,2.903,11.58199,-15.24973,-6.68517
287,9.567,0.686,9.358,2.219,6.54958,-15.84727,-10.68463
288,9.600,0.848,9.251,1.621,1.75525,-21.45039,-8.05321
289,9.633,0.426,8.590,1.178,-6.38217,-23.86261,-5.66919
290,9.667,0.427,8.419,1.292,-18.09037,-30.34421,-4.06339
291,9.700,0.488,8.954,0.637,-20.86976,-37.70286,0.04687
292,9.733,0.281,9.877,1.313,-20.17339,-43.12791,4.46081
293,9.767,-0.486,11.227,1.359,-17.28638,-46.39619,5.21101
294,9.800,-1.180,10.676,2.325,2.90815,-32.34139,-0.94756
295,9.833,-1.673,10.286,2.381,2.82218,-14.30656,-8.14064
296,9.867,-1.973,9.996,2.080,5.29515,-3.84214,-11.91842
297,9.900,-0.694,8.940,1.927,-1.67186,-2.69467,-3.32060
298,9.933,0.858,8.808,1.628,-1.89072,-12.21429,-0.43252
299,9.967,0.204,9.832,1.498,-0.86005,-26.12213,-1.95420
300,10.000,-0.438,10.111,1.551,5.13736,-30.80152,-3.40458
301,10.033,-0.895,10.203,1.456,11.74828,-30.88284,-3.36900
302,10.067,-0.998,10.060,1.363,14.88545,-23.57223,-5.47336
303,10.100,-0.283,10.151,1.599,11.09165,-19.29766,-5.09165
304,10.133,-0.140,10.093,1.597,12.79638,-22.66411,-2.07896
305,10.167,-0.335,9.733,1.661,13.90835,-22.66271,-0.34450
306,10.200,-0.254,9.395,1.377,10.90862,-22.73287,0.36643
307,10.233,-0.222,9.581,1.393,3.21380,-19.77611,-0.38676
308,10.267,-0.184,9.863,1.550,2.71248,-18.68957,-0.88297
309,10.300,-0.062,10.111,1.597,6.00758,-22.81675,-0.80917
310,10.333,-0.030,10.161,1.796,10.30803,-20.62841,-3.04595
311,10.367,0.084,10.187,1.766,14.42752,-22.98218,-5.48353
312,10.400,0.328,9.998,1.867,15.25954,-27.04570,-6.95417
313,10.433,0.334,9.900,1.993,17.65648,-36.48106,-4.71243
314,10.467,0.583,9.766,2.085,15.56749,-41.37141,-3.66411
315,10.500,0.678,9.610,2.195,13.82444,-48.52667,-6.13738
316,10.533,0.737,10.117,2.434,12.60071,-52.32847,-10.15268
317,10.567,0.641,10.293,2.257,21.51426,-63.86785,-9.72527
318,10.600,0.333,10.163,2.195,26.82441,-66.32823,-8.93894
319,10.633,0.654,9.898,2.354,24.31278,-74.85016,-8.12464
320,10.667,0.895,9.761,1.699,22.13496,-87.23709,-7.42492
321,10.700,0.510,9.543,1.446,27.30536,-95.90083,-5.48857
322,10.733,0.222,8.958,1.225,28.16268,-104.22179,-9.35901
323,10.767,-0.318,9.470,1.201,25.75828,-108.06882,-13.18839
